timestamp,accX,accY,accZ
2.0,1.49,0.9,10.79
15.0,0.69,0.85,8.84
28.0,0.42,0.88,10.91
41.0,0.47,0.53,11.82
54.0,0.81,0.02,12.54
66.0,1.19,-0.2,12.76
79.0,1.4,-0.12,12.52
92.0,1.32,0.02,12.19
105.0,0.87,-0.07,12.09
118.0,0.56,-0.27,12.21
131.0,0.63,-0.42,12.13
144.0,0.96,-0.36,11.43
156.0,1.18,0.0,10.4
169.0,1.08,0.25,9.45
182.0,0.68,0.41,9.11
195.0,0.06,0.5,8.87
208.0,-0.48,0.5,8.69
221.0,-0.79,0.54,8.13
234.0,-0.6,0.62,7.73
246.0,-0.22,0.43,7.54
259.0,-0.13,0.2,7.99
272.0,-0.14,-0.43,9.33
285.0,-0.15,-0.95,10.27
298.0,-0.17,-0.81,9.71
311.0,-0.1,-0.1,8.09
324.0,-0.1,0.51,6.86
336.0,-0.29,0.76,6.22
349.0,-0.48,0.48,6.67
362.0,-0.54,-0.82,8.69
375.0,-0.31,-2.31,10.94
388.0,0.05,-3.26,12.38
401.0,0.21,-3.41,12.6
414.0,0.08,-3.08,11.95
426.0,-0.3,-2.55,10.69
439.0,-0.64,-2.1,9.63
452.0,-0.88,-2.04,9.18
465.0,-0.82,-2.07,9.01
478.0,-0.65,-2.09,8.96
491.0,-0.57,-2.26,9.46
504.0,-0.62,-2.71,10.24
517.0,-0.36,-3.18,10.5
529.0,0.25,-3.23,10.43
542.0,0.67,-3.0,10.06
555.0,0.89,-2.88,9.42
568.0,0.79,-2.92,9.1
581.0,0.57,-2.98,9.26
594.0,0.11,-3.06,9.56
607.0,0.01,-3.07,9.94
619.0,0.03,-2.97,9.9
632.0,0.21,-2.84,9.52
645.0,0.5,-2.66,9.22
658.0,0.6,-2.5,9.12
671.0,0.48,-2.4,9.1
684.0,0.2,-2.38,9.16
697.0,-0.13,-2.4,9.16
709.0,-0.37,-2.4,9.28
722.0,-0.58,-2.41,9.48
735.0,-0.65,-2.36,9.59
748.0,-0.42,-2.32,9.43
761.0,-0.17,-2.29,8.87
774.0,-0.01,-2.22,8.46
787.0,0.2,-2.26,8.59
800.0,0.23,-2.36,9.25
812.0,0.26,-2.43,9.65
825.0,0.31,-2.45,9.67
838.0,0.55,-2.34,9.51
851.0,0.5,-2.08,9.07
864.0,0.51,-1.86,8.62
877.0,0.2,-1.74,8.43
890.0,-0.01,-1.83,9.01
902.0,0.44,-1.93,9.86
915.0,1.08,-1.95,10.19
928.0,1.26,-1.47,9.49
941.0,0.67,-0.78,8.82
954.0,0.22,-0.2,8.38
967.0,-0.18,0.16,8.43
980.0,-0.58,0.58,8.77
992.0,-0.23,0.63,9.25
1005.0,0.32,0.65,9.68
1018.0,0.82,0.54,9.92
1031.0,0.81,0.58,10.19
1044.0,0.31,0.59,10.72
1057.0,-0.32,0.5,11.49
1070.0,-0.66,0.43,12.22
1082.0,-0.42,0.17,12.94
1095.0,0.05,0.26,13.06
1108.0,0.22,0.43,13.13
1121.0,0.23,0.58,13.14
1134.0,0.32,0.86,12.75
1147.0,0.57,1.2,12.33
1159.0,0.9,1.44,12.16
1172.0,1.32,1.56,12.08
1185.0,1.71,1.67,11.96
1198.0,1.76,1.75,11.89
1211.0,1.42,1.89,11.78
1224.0,1.13,2.0,11.75
1237.0,0.81,2.0,11.78
1249.0,0.71,1.85,11.71
1262.0,1.02,1.7,11.47
1275.0,1.78,1.55,10.98
1288.0,2.23,1.48,10.6
1301.0,2.04,1.65,10.19
1314.0,1.4,1.95,9.74
1326.0,0.84,2.03,9.55
1339.0,0.81,1.78,9.75
1352.0,1.0,1.52,9.7
1365.0,0.72,1.33,9.69
1378.0,0.66,1.14,9.65
1391.0,0.77,1.11,9.28
1403.0,0.88,1.09,8.96
1416.0,0.53,0.84,9.21
1429.0,-0.08,0.71,9.27
1442.0,-0.58,0.7,9.1
1455.0,-0.66,0.54,9.28
1468.0,-0.27,0.16,9.72
1481.0,0.7,-0.19,9.92
1493.0,0.79,-0.39,9.68
1506.0,-0.36,-0.01,8.67
1519.0,-1.67,0.22,8.12
1532.0,-2.23,-0.08,8.51
1545.0,-1.9,-0.61,9.18
1558.0,-1.29,-1.11,9.72
1571.0,-0.91,-1.44,9.8
1584.0,-0.12,-1.52,9.38
1596.0,0.84,-2.16,9.93
1609.0,1.3,-3.08,11.16
1622.0,1.03,-3.59,11.99
1635.0,0.42,-3.89,12.39
1648.0,-0.19,-3.87,12.47
1661.0,-0.57,-3.46,11.9
1674.0,-0.72,-2.85,10.89
1686.0,-0.94,-2.29,9.61
1699.0,-1.07,-1.94,8.98
1712.0,-0.84,-2.3,9.49
1725.0,-0.51,-2.57,9.91
1738.0,-0.35,-2.61,10.12
1751.0,-0.41,-2.66,10.21
1764.0,-0.54,-2.66,10.12
1777.0,-0.43,-2.61,10.0
1789.0,-0.14,-2.71,9.97
1802.0,0.13,-2.83,9.96
1815.0,0.25,-2.83,9.83
1828.0,0.38,-2.68,9.57
1841.0,0.49,-2.56,9.29
1854.0,0.5,-2.4,8.91
1867.0,0.41,-2.37,8.77
1879.0,0.15,-2.4,8.91
1892.0,0.04,-2.52,9.2
1905.0,0.17,-2.43,9.25
1918.0,0.03,-2.26,9.23
1931.0,-0.33,-2.19,9.32
1944.0,-0.67,-2.22,9.47
1957.0,-0.81,-2.3,9.59
1970.0,-0.64,-2.38,9.56
1982.0,-0.42,-2.38,9.34
1995.0,-0.29,-2.35,9.03
2008.0,-0.27,-2.4,8.8
2021.0,-0.27,-2.56,8.51
2034.0,-0.34,-2.57,8.21
2047.0,-0.54,-2.51,8.23
2060.0,-0.73,-2.44,8.37
2073.0,-0.73,-2.24,8.46
2085.0,-0.19,-2.23,8.95
2098.0,0.22,-2.24,9.39
2111.0,0.47,-2.05,9.73
2124.0,0.75,-1.93,9.97
2137.0,0.54,-1.5,10.22
2150.0,-0.1,-0.94,10.15
2163.0,-0.56,-0.26,9.88
2175.0,-0.44,-0.02,9.6
2188.0,0.01,0.13,9.64
2201.0,0.37,0.13,10.01
2214.0,0.5,0.25,10.29
2227.0,0.56,0.53,10.33
2240.0,0.58,0.63,10.33
2253.0,0.44,0.89,10.23
2265.0,0.7,0.92,10.4
2278.0,1.2,0.83,10.93
2291.0,1.65,0.77,11.37
2304.0,1.95,0.74,11.63
2317.0,2.02,0.73,11.83
2330.0,1.71,0.86,12.04
2342.0,1.46,0.99,12.21
2355.0,1.48,1.12,12.25
2368.0,1.54,1.38,12.06
2381.0,1.57,1.51,11.89
2394.0,1.48,1.67,11.65
2407.0,1.49,1.83,11.43
2419.0,1.51,1.87,11.37
2432.0,1.28,1.9,11.43
2445.0,0.97,1.86,11.52
2458.0,0.7,1.87,11.39
2471.0,0.49,1.92,11.18
2484.0,0.51,1.86,11.13
2497.0,0.57,1.87,11.08
2509.0,0.69,1.89,11.06
2522.0,0.97,1.72,11.48
2535.0,1.16,1.32,12.22
2548.0,1.26,0.96,12.68
2561.0,1.35,0.76,12.51
2574.0,1.11,1.07,11.4
2586.0,0.77,1.53,10.2
2599.0,0.4,1.87,8.92
2612.0,0.14,2.39,7.55
2625.0,-0.58,2.85,7.28
2638.0,-0.99,2.47,8.2
2651.0,-0.8,1.35,9.73
2664.0,-0.08,0.39,10.9
2676.0,0.86,-0.25,11.49
2689.0,1.57,-0.64,11.2
2702.0,1.77,-0.64,10.44
2715.0,1.19,-0.67,9.76
2728.0,0.17,-0.73,9.64
2741.0,-0.47,-1.34,10.31
2754.0,-0.3,-1.92,10.72
2766.0,0.44,-2.57,11.09
2779.0,1.09,-3.07,11.42
2792.0,1.22,-3.46,11.37
2805.0,0.32,-3.41,11.04
2818.0,-0.96,-3.09,9.89
2831.0,-1.67,-2.73,8.67
2844.0,-1.47,-2.63,8.25
2856.0,-0.74,-2.83,8.71
2869.0,-0.24,-3.26,9.71
2882.0,-0.26,-3.7,10.08
2895.0,-0.28,-3.67,10.36
2908.0,-0.36,-3.72,10.42
2921.0,-0.38,-3.43,9.95
2934.0,-0.59,-3.0,9.29
2947.0,-0.75,-2.74,9.02
2959.0,-0.59,-2.68,8.92
2972.0,-0.15,-2.76,9.05
2985.0,0.09,-2.91,9.3
2998.0,0.1,-2.77,9.21
3011.0,-0.08,-2.55,8.87
3024.0,-0.31,-2.38,8.55
3037.0,-0.41,-2.23,8.33
3050.0,-0.36,-2.2,8.54
3062.0,-0.32,-2.23,8.85
3075.0,-0.2,-2.34,9.22
3088.0,-0.29,-2.55,9.42
3101.0,-0.28,-2.46,9.03
3114.0,-0.25,-2.27,8.66
3127.0,-0.43,-2.25,8.49
3140.0,-0.9,-2.13,8.66
3153.0,-1.22,-2.28,9.35
3165.0,-1.25,-2.45,9.93
3178.0,-0.67,-2.39,9.89
3191.0,0.09,-2.32,9.75
3204.0,0.5,-2.08,9.48
3217.0,0.26,-1.73,9.18
3230.0,-0.66,-1.27,9.06
3243.0,-1.68,-0.95,9.64
3256.0,-2.18,-0.64,10.32
3268.0,-2.48,-0.51,10.58
3281.0,-2.35,-0.2,10.18
3294.0,-2.13,0.12,9.49
3307.0,-1.83,0.42,8.84
3320.0,-1.31,0.5,8.8
3333.0,-0.63,0.11,9.65
3346.0,0.14,-0.4,10.5
3358.0,0.78,-0.93,10.99
3371.0,1.71,-1.26,11.21
3384.0,2.2,-1.23,10.98
3397.0,1.91,-1.08,10.85
3410.0,1.14,-0.81,10.93
3423.0,0.56,-0.57,11.13
3436.0,0.59,-0.42,11.15
3448.0,1.25,-0.33,11.34
3461.0,1.52,-0.18,11.61
3474.0,1.43,0.09,11.74
3487.0,1.26,0.48,11.62
3500.0,1.16,1.1,11.14
3513.0,1.21,1.51,10.81
3525.0,1.65,1.76,10.96
3538.0,2.06,1.81,11.46
3551.0,2.33,1.94,11.69
3564.0,2.38,2.17,11.52
3577.0,2.35,2.36,11.44
3590.0,2.65,2.24,11.7
3603.0,3.1,2.02,12.02
3615.0,3.28,1.91,12.08
3628.0,2.97,1.98,11.86
3641.0,2.44,1.94,11.86
3654.0,1.97,1.83,11.86
3667.0,1.9,1.58,11.71
3680.0,2.06,1.55,11.24
3692.0,2.31,1.6,10.52
3705.0,2.04,1.62,10.18
3718.0,1.33,1.73,9.99
3731.0,0.49,1.83,9.85
3744.0,0.19,1.75,10.0
3757.0,1.05,1.18,10.34
3769.0,2.02,0.53,10.86
3782.0,2.05,0.05,11.25
3795.0,1.37,-0.2,11.32
3808.0,0.73,-0.24,11.15
3821.0,0.27,-0.02,10.26
3834.0,0.45,0.45,9.1
3847.0,0.98,0.54,8.76
3859.0,0.86,0.44,9.21
3872.0,0.55,0.28,9.76
3885.0,0.25,0.11,9.86
3898.0,-0.17,0.2,9.17
3911.0,-0.89,0.66,7.5
3924.0,-1.65,1.24,5.55
3937.0,-1.9,1.05,5.52
3949.0,-1.7,-0.27,7.54
3962.0,-0.18,-1.69,10.31
3975.0,0.94,-2.97,12.56
3988.0,1.0,-3.7,13.38
4001.0,0.66,-4.09,12.62
4014.0,-1.4,-3.29,11.15
4027.0,-2.75,-2.45,8.87
4039.0,-3.0,-2.04,7.37
4052.0,-2.03,-1.92,6.94
4065.0,-0.92,-2.25,7.6
4078.0,-0.4,-3.12,8.94
4091.0,-0.14,-4.07,10.37
4104.0,-0.05,-4.42,11.27
4117.0,0.16,-4.53,10.67
4130.0,-0.28,-4.1,9.24
4142.0,-1.2,-3.42,7.85
4155.0,-1.38,-3.4,7.57
4168.0,-0.39,-4.0,8.99
4181.0,0.53,-4.53,10.3
4194.0,0.87,-4.97,11.33
4207.0,0.85,-5.04,11.47
4220.0,0.45,-4.41,10.46
4233.0,0.02,-3.7,9.19
4245.0,-0.39,-3.39,8.47
4258.0,-0.63,-3.32,8.7
4271.0,-0.62,-3.57,9.72
4284.0,-0.47,-3.78,10.66
4297.0,-0.52,-3.68,10.97
4310.0,-0.68,-3.35,10.49
4323.0,-0.75,-2.82,9.86
4336.0,-0.71,-2.66,9.75
4348.0,-0.31,-2.65,10.11
4361.0,0.28,-2.68,10.29
4374.0,0.71,-2.49,10.3
4387.0,0.96,-2.4,10.3
4400.0,0.59,-2.26,9.79
4413.0,0.05,-1.87,8.9
4426.0,-0.5,-1.73,8.17
4438.0,-0.72,-1.82,8.43
4451.0,-0.38,-2.3,9.48
4464.0,-0.03,-2.49,10.05
4477.0,0.19,-1.94,9.41
4490.0,-0.02,-1.24,8.36
4503.0,-0.44,-0.5,7.77
4516.0,-1.0,0.1,8.3
4528.0,-1.12,0.09,9.58
4541.0,-0.87,-0.25,10.46
4554.0,-0.68,-0.03,10.31
4567.0,-0.75,0.65,9.4
4580.0,-1.01,1.38,8.62
4593.0,-0.84,1.33,9.14
4606.0,-0.16,0.77,10.55
4619.0,1.02,0.22,11.88
4631.0,2.36,-0.16,12.84
4644.0,3.09,-0.08,13.13
4657.0,2.98,0.37,12.91
4670.0,2.53,0.95,12.67
4683.0,2.15,1.3,12.67
4696.0,2.29,1.48,12.73
4708.0,2.6,1.5,12.95
4721.0,2.85,1.55,12.95
4734.0,3.01,1.61,12.83
4747.0,2.9,1.7,12.53
4760.0,3.05,1.67,12.36
4773.0,2.96,1.75,12.13
4786.0,2.74,1.73,12.1
4798.0,2.58,1.54,12.12
4811.0,2.54,1.52,11.73
4824.0,2.49,1.61,11.11
4837.0,2.18,1.59,10.46
4850.0,1.91,1.46,9.95
4863.0,1.48,1.6,9.58
4875.0,0.88,1.8,9.52
4888.0,0.41,1.6,10.17
4901.0,0.15,1.31,10.98
4914.0,0.59,0.93,10.88
4927.0,1.24,0.93,9.72
4940.0,0.85,1.13,8.84
4952.0,-0.1,0.74,9.3
4965.0,-0.35,-0.03,10.24
4978.0,-0.54,-0.41,10.73
4991.0,-0.31,-0.44,10.55
5004.0,0.66,-0.48,10.02
5017.0,1.46,-0.42,9.53
5030.0,1.21,-0.14,8.79
5043.0,0.41,-0.1,8.66
5055.0,-0.4,-0.23,8.5
5068.0,-0.52,-0.38,8.82
5081.0,0.08,-1.09,10.15
5094.0,0.99,-1.59,11.1
5107.0,1.23,-1.95,11.67
5120.0,0.52,-1.96,11.15
5133.0,-0.78,-1.44,9.42
5145.0,-2.09,-0.89,6.96
5158.0,-2.57,-0.84,6.01
5171.0,-1.59,-1.72,7.34
5184.0,0.45,-3.25,10.35
5197.0,1.49,-4.54,13.49
5210.0,2.1,-5.57,14.64
5223.0,1.75,-5.9,14.3
5235.0,0.07,-4.61,12.52
5248.0,-1.11,-3.31,9.37
5261.0,-1.45,-2.33,6.84
5274.0,-1.29,-1.73,5.52
5287.0,-0.76,-1.82,6.59
5300.0,-0.38,-2.75,9.01
5313.0,-0.11,-3.34,10.64
5326.0,0.15,-3.51,11.23
5338.0,0.39,-3.49,10.81
5351.0,0.57,-3.18,9.61
5364.0,0.75,-3.05,9.09
5377.0,0.77,-3.22,9.26
5390.0,0.36,-3.48,9.7
5403.0,-0.01,-3.73,10.24
5416.0,0.07,-3.84,10.64
5428.0,0.29,-3.78,10.35
5441.0,0.44,-3.46,9.49
5454.0,0.29,-3.21,8.7
5467.0,-0.02,-3.06,8.19
5480.0,-0.28,-2.96,8.2
5493.0,-0.5,-3.1,8.29
5506.0,-0.6,-3.08,8.33
5519.0,-0.29,-3.19,8.62
5531.0,0.27,-3.5,9.28
5544.0,0.92,-3.66,9.34
5557.0,1.22,-3.36,8.87
5570.0,0.62,-2.72,8.49
5583.0,-0.46,-2.46,8.59
5596.0,-1.52,-2.3,8.46
5609.0,-2.1,-2.13,8.45
5621.0,-1.99,-2.23,8.49
5634.0,-1.07,-2.14,9.09
5647.0,-0.01,-2.18,9.51
5660.0,0.87,-2.03,9.61
5673.0,0.97,-1.68,9.1
5686.0,0.64,-1.09,8.4
5699.0,0.02,-0.82,8.24
5712.0,-0.58,-0.6,8.58
5724.0,-0.62,-0.94,9.66
5737.0,0.34,-1.23,10.78
5750.0,1.43,-1.38,11.58
5763.0,1.66,-1.16,11.32
5776.0,1.06,-0.69,10.73
5789.0,0.3,-0.24,10.54
5802.0,-0.16,-0.0,10.89
5814.0,-0.0,0.2,11.01
5827.0,0.56,0.38,10.96
5840.0,1.3,0.61,10.9
5853.0,1.84,0.89,11.12
5866.0,2.11,0.7,12.21
5879.0,2.28,0.51,13.52
5892.0,2.4,0.4,14.17
5904.0,2.42,0.59,14.19
5917.0,2.34,0.85,13.75
5930.0,2.18,1.03,13.35
5943.0,1.92,1.22,12.98
5956.0,1.66,1.31,12.37
5969.0,1.07,1.62,11.86
5981.0,0.95,1.86,11.44
5994.0,1.29,1.55,11.4
6007.0,1.69,1.14,11.52
6020.0,1.84,0.69,11.71
6033.0,1.75,0.33,11.69
6046.0,1.48,0.32,11.4
6058.0,1.15,0.55,10.81
6071.0,0.94,0.93,10.06
6084.0,0.76,1.17,9.58
6097.0,0.54,1.13,9.72
6110.0,0.35,0.72,10.57
6123.0,0.28,0.42,11.06
6136.0,0.32,0.43,10.69
6148.0,0.42,0.71,9.34
6161.0,0.86,0.81,8.75
6174.0,1.7,0.49,8.98
6187.0,2.26,0.4,9.17
6200.0,2.2,0.49,8.96
6213.0,1.39,0.75,8.28
6225.0,-0.14,1.53,6.62
6238.0,-1.46,2.49,6.03
6251.0,-2.76,1.74,7.31
6264.0,-2.24,0.57,9.8
6277.0,-0.63,-0.6,11.89
6290.0,1.15,-1.58,13.02
6303.0,1.83,-1.75,12.77
6315.0,1.19,-1.29,11.56
6328.0,-0.11,-0.9,10.44
6341.0,-1.24,-0.51,9.14
6354.0,-1.27,-0.59,8.66
6367.0,-0.38,-1.2,9.17
6380.0,0.12,-1.91,9.97
6393.0,-0.12,-2.51,10.54
6406.0,-0.41,-3.01,10.8
6418.0,-0.3,-3.44,10.91
6431.0,0.08,-3.71,10.98
6444.0,0.34,-3.75,10.76
6457.0,-0.04,-3.48,10.39
6470.0,-0.56,-3.31,10.0
6483.0,-0.94,-2.94,9.28
6496.0,-0.57,-2.78,9.2
6508.0,-0.33,-2.85,9.16
6521.0,-0.27,-2.81,9.07
6534.0,-0.31,-2.84,9.31
6547.0,-0.51,-2.81,9.53
6560.0,-0.56,-2.83,9.67
6573.0,-0.42,-2.81,9.6
6586.0,-0.19,-2.82,9.4
6599.0,-0.2,-2.85,9.29
6611.0,-0.16,-2.85,9.45
6624.0,-0.13,-2.96,9.74
6637.0,-0.04,-3.11,10.07
6650.0,-0.15,-3.13,9.99
6663.0,-0.49,-3.01,9.55
6676.0,-0.6,-2.9,9.17
6689.0,-0.41,-2.76,8.93
6702.0,-0.15,-2.45,8.4
6714.0,-0.15,-2.2,8.24
6727.0,-0.32,-2.27,8.73
6740.0,-0.33,-2.44,9.3
6753.0,-0.46,-2.15,9.13
6766.0,-0.43,-1.71,8.49
6779.0,-0.22,-1.58,8.17
6792.0,-0.09,-1.52,8.17
6805.0,-0.25,-1.37,8.48
6817.0,-0.21,-1.45,9.74
6830.0,0.31,-1.55,10.68
6843.0,0.69,-1.26,10.69
6856.0,0.82,-0.8,10.1
6869.0,0.72,-0.42,9.95
6882.0,0.53,0.23,9.71
6895.0,0.03,0.88,9.33
6907.0,-0.41,1.24,9.14
6920.0,-0.12,1.3,9.42
6933.0,0.9,0.94,10.46
6946.0,1.65,0.83,11.19
6959.0,1.61,1.15,11.29
6972.0,1.5,1.27,11.49
6985.0,1.62,1.24,11.91
6997.0,1.78,1.21,12.36
7010.0,1.94,1.3,12.71
7023.0,2.23,1.26,12.93
7036.0,2.29,1.35,12.98
7049.0,2.17,1.37,12.85
7062.0,1.87,1.4,12.7
7074.0,1.6,1.32,12.87
7087.0,1.66,1.04,13.15
7100.0,1.59,0.91,13.05
7113.0,1.44,1.21,12.45
7126.0,1.31,1.51,11.78
7139.0,1.54,1.43,11.43
7151.0,1.89,1.27,11.12
7164.0,2.04,1.09,11.01
7177.0,1.79,1.03,10.99
7190.0,1.36,0.95,10.86
7203.0,1.24,0.58,11.12
7216.0,1.64,0.21,11.22
7229.0,1.85,0.03,11.24
7241.0,1.26,-0.12,11.51
7254.0,0.3,0.25,10.96
7267.0,-0.5,0.7,10.21
7280.0,-0.51,0.78,9.66
7293.0,0.19,0.42,9.71
7306.0,1.25,-0.1,10.12
7318.0,2.05,-0.38,10.15
7331.0,1.93,-0.14,9.5
7344.0,1.26,0.59,8.82
7357.0,0.21,0.96,8.73
7370.0,-0.53,1.1,9.08
7383.0,-0.29,0.38,9.87
7396.0,0.6,-0.17,10.3
7408.0,1.62,-0.59,10.25
7421.0,1.79,-0.72,10.02
7434.0,1.24,-0.49,9.39
7447.0,-0.18,0.22,8.02
7460.0,-1.41,0.88,7.04
7473.0,-1.54,0.3,8.08
7486.0,-0.6,-0.71,9.6
7499.0,0.67,-1.51,10.63
7511.0,1.83,-2.18,11.37
7524.0,2.52,-2.68,11.85
7537.0,2.31,-2.8,11.8
7550.0,1.38,-2.71,11.5
7563.0,0.44,-2.42,10.7
7576.0,-0.03,-1.93,9.45
7589.0,-0.08,-1.68,8.5
7601.0,-0.05,-1.62,8.26
7614.0,0.23,-1.88,8.77
7627.0,0.68,-2.38,9.53
7640.0,0.7,-2.78,10.18
7653.0,0.39,-2.97,10.42
7666.0,-0.15,-2.93,10.15
7679.0,-0.62,-2.61,9.81
7691.0,-0.78,-2.54,9.63
7704.0,-0.75,-2.4,9.3
7717.0,-0.59,-2.4,9.15
7730.0,-0.36,-2.45,9.14
7743.0,-0.22,-2.58,9.41
7756.0,-0.16,-2.82,9.9
7769.0,0.14,-2.87,9.89
7782.0,0.51,-2.81,9.65
7794.0,0.41,-2.69,9.36
7807.0,-0.02,-2.57,9.29
7820.0,-0.44,-2.63,9.51
7833.0,-0.4,-2.66,9.76
7846.0,-0.05,-2.84,10.29
7859.0,0.48,-2.98,10.68
7872.0,0.96,-2.97,10.66
7884.0,1.12,-2.74,10.02
7897.0,1.03,-2.19,9.31
7910.0,0.57,-1.89,9.3
7923.0,-0.04,-1.76,9.98
7936.0,-0.49,-1.75,10.58
7949.0,-0.51,-1.44,10.81
7962.0,-0.36,-1.2,10.59
7975.0,-0.18,-0.82,9.77
7987.0,0.07,-0.6,9.33
8000.0,0.56,-0.5,9.28
8013.0,1.36,-0.25,9.39
8026.0,2.09,0.03,9.32
8039.0,2.2,0.4,9.17
8052.0,1.61,0.84,9.05
8065.0,1.14,0.74,9.56
8077.0,0.76,0.94,9.66
8090.0,0.53,1.51,9.15
8103.0,0.26,2.01,8.56
8116.0,0.5,2.5,8.28
8129.0,1.27,2.47,8.62
8142.0,1.94,2.3,9.2
8154.0,2.35,2.1,9.55
8167.0,2.34,1.95,9.93
8180.0,1.91,1.94,10.16
8193.0,1.24,1.84,10.55
8206.0,0.62,2.21,10.67
8219.0,0.51,2.44,10.76
8231.0,0.65,2.47,11.03
8244.0,0.69,2.46,11.21
8257.0,0.6,2.36,11.28
8270.0,0.7,2.17,11.38
8283.0,0.69,2.08,11.37
8296.0,0.6,2.02,11.49
8309.0,0.35,1.97,11.6
8321.0,0.32,1.82,11.79
8334.0,0.68,1.43,12.03
8347.0,1.26,0.98,12.39
8360.0,1.62,0.59,12.7
8373.0,1.56,0.39,12.91
8386.0,1.13,0.53,12.64
8398.0,0.59,1.3,11.89
8411.0,-0.06,1.8,11.58
8424.0,-0.69,1.72,11.74
8437.0,-0.72,0.82,12.31
8450.0,0.2,-0.38,12.84
8463.0,1.49,-1.27,12.77
8476.0,2.66,-1.6,11.83
8488.0,2.52,-1.16,10.34
8501.0,0.66,-0.22,8.72
8514.0,-1.8,1.69,6.71
8527.0,-2.85,1.91,7.18
8540.0,-1.57,1.05,8.61
8553.0,0.53,0.38,9.48
8566.0,2.15,-0.51,10.31
8578.0,2.75,-1.23,11.24
8591.0,2.24,-1.45,11.41
8604.0,0.46,-0.71,9.6
8617.0,-1.69,1.14,6.68
8630.0,-2.65,1.39,6.1
8643.0,-1.79,0.97,6.85
8656.0,-0.24,0.21,8.26
8668.0,1.14,-1.04,10.19
8681.0,2.06,-2.07,11.54
8694.0,2.28,-2.28,11.51
8707.0,1.74,-2.04,10.04
8720.0,0.54,-1.18,7.91
8733.0,-0.75,-1.05,7.69
8746.0,-1.27,-1.75,8.88
8758.0,-0.8,-2.48,10.15
8771.0,0.39,-3.14,11.07
8784.0,1.66,-3.42,11.33
8797.0,2.29,-3.34,11.06
8810.0,1.86,-3.17,10.62
8823.0,0.81,-2.76,9.53
8836.0,0.17,-2.25,8.38
8848.0,0.16,-2.22,8.24
8861.0,0.6,-2.5,8.71
8874.0,1.15,-2.86,9.5
8887.0,1.59,-3.25,10.43
8900.0,1.83,-3.35,10.73
8913.0,1.3,-3.03,10.23
8926.0,0.4,-2.5,9.38
8938.0,-0.25,-2.11,8.77
8951.0,-0.64,-1.92,8.61
8964.0,-0.91,-1.86,8.69
8977.0,-0.98,-2.13,9.26
8990.0,-0.97,-2.45,9.85
9003.0,-0.59,-2.58,10.06
9016.0,0.13,-2.68,9.99
9029.0,0.54,-2.59,9.6
9041.0,0.72,-2.62,9.33
9054.0,0.88,-2.81,9.45
9067.0,1.26,-3.01,9.66
9080.0,1.5,-2.94,9.58
9093.0,1.34,-2.78,9.69
9106.0,0.94,-2.58,9.66
9119.0,0.48,-2.26,9.84
9131.0,0.24,-2.11,9.76
9144.0,0.29,-1.85,9.65
9157.0,0.18,-1.65,9.67
9170.0,0.1,-1.29,9.68
9183.0,0.45,-1.15,9.88
9196.0,0.71,-1.05,10.09
9209.0,0.71,-0.95,10.32
9221.0,0.51,-0.72,10.52
9234.0,0.28,-0.31,10.41
9247.0,0.19,-0.01,10.41
9260.0,0.12,0.3,10.22
9273.0,0.54,0.52,10.3
9286.0,1.22,0.48,10.65
9299.0,1.81,0.73,10.52
9311.0,1.93,0.9,10.56
9324.0,1.56,1.02,10.67
9337.0,1.28,1.24,10.74
9350.0,1.27,1.3,11.11
9363.0,1.73,1.24,11.5
9376.0,2.22,1.08,11.98
9388.0,2.22,1.1,12.2
9401.0,2.16,1.15,12.21
9414.0,2.23,1.25,11.99
9427.0,2.31,1.45,11.57
9440.0,2.22,1.71,11.01
9453.0,1.92,1.98,10.51
9466.0,1.69,2.13,10.22
9478.0,1.61,2.24,10.02
9491.0,1.93,2.1,10.08
9504.0,2.47,1.61,10.48
9517.0,3.01,1.15,10.86
9530.0,2.92,1.15,10.72
9543.0,2.22,1.49,10.61
9555.0,1.15,1.66,11.01
9568.0,0.47,1.46,11.92
9581.0,0.51,1.08,12.55
9594.0,1.05,0.74,12.77
9607.0,1.92,0.36,12.57
9620.0,2.75,-0.05,12.09
9632.0,2.79,-0.22,11.73
9645.0,1.91,-0.07,11.05
9658.0,0.68,0.46,10.07
9671.0,-0.14,1.04,9.07
9684.0,-0.32,1.39,8.92
9697.0,-0.02,1.15,9.24
9710.0,0.48,0.9,9.45
9722.0,0.83,0.53,9.53
9735.0,1.04,0.19,9.64
9748.0,0.83,0.01,9.45
9761.0,0.53,0.28,8.51
9774.0,0.2,0.73,7.44
9787.0,-0.11,0.89,6.95
9800.0,-0.24,0.79,7.47
9812.0,-0.29,0.1,8.79
9825.0,0.2,-0.6,9.92
9838.0,0.89,-1.08,10.38
9851.0,1.27,-1.11,9.73
9864.0,0.85,-0.54,7.9
9877.0,-0.45,0.05,6.34
9890.0,-1.38,-0.1,6.59
9902.0,-1.09,-1.24,8.38
9915.0,-0.14,-2.33,10.18
9928.0,0.91,-3.15,11.43
9941.0,1.56,-3.58,11.98
9954.0,1.6,-3.47,11.3
9967.0,0.62,-2.9,9.94
9980.0,-0.44,-2.47,8.56
9992.0,-1.17,-2.23,7.57
10005.0,-0.27,-2.91,9.09
10018.0,1.21,-3.94,10.94
10031.0,1.8,-4.27,11.95
10044.0,2.29,-4.23,11.42
10057.0,1.87,-3.72,10.52
10070.0,1.03,-3.08,9.61
10083.0,0.34,-2.83,9.33
10095.0,-0.18,-2.54,8.95
10108.0,-0.25,-2.43,8.85
10121.0,-0.09,-2.76,9.5
10134.0,0.14,-3.13,10.26
10147.0,0.24,-3.21,10.73
10160.0,0.19,-2.83,10.43
10173.0,-0.05,-2.45,9.93
10185.0,-0.22,-2.17,9.21
10198.0,-0.29,-2.02,8.79
10211.0,-0.33,-1.95,8.63
10224.0,-0.39,-1.91,8.75
10237.0,-0.18,-1.89,8.83
10250.0,0.0,-1.8,8.77
10263.0,0.55,-1.91,8.85
10276.0,0.86,-2.09,8.93
10288.0,0.46,-2.13,8.62
10301.0,-0.65,-1.95,8.49
10314.0,-1.57,-1.81,8.93
10327.0,-1.42,-1.65,9.56
10340.0,-0.38,-1.61,10.13
10353.0,0.43,-1.46,9.93
10366.0,0.38,-1.13,9.71
10378.0,-0.04,-1.03,9.96
10391.0,-0.43,-0.61,10.13
10404.0,-0.77,0.08,10.2
10417.0,-1.05,0.83,9.95
10430.0,-1.33,1.51,9.65
10443.0,-1.3,1.75,9.96
10456.0,-1.05,1.63,10.79
10469.0,-0.93,1.53,11.56
10481.0,-0.63,1.47,12.15
10494.0,-0.55,1.47,12.57
10507.0,-0.25,1.46,13.0
10520.0,0.04,1.39,13.29
10533.0,0.1,1.46,13.34
10546.0,0.06,1.54,13.2
10558.0,0.3,1.61,12.88
10571.0,0.9,1.49,12.72
10584.0,1.22,1.38,12.55
10597.0,1.28,1.39,12.37
10610.0,1.03,1.43,12.03
10623.0,0.79,1.55,11.57
10636.0,0.81,1.34,11.22
10648.0,0.88,1.01,11.1
10661.0,0.85,0.82,10.91
10674.0,0.8,0.64,10.83
10687.0,0.74,0.66,10.79
10700.0,0.84,0.5,10.86
10713.0,1.34,0.2,11.05
10725.0,1.72,-0.14,11.22
10738.0,1.24,-0.07,11.0
10751.0,0.18,0.16,10.74
10764.0,-0.82,0.43,10.55
10777.0,-1.35,0.89,10.08
10790.0,-1.34,1.13,9.78
10803.0,-0.42,0.81,9.74
10815.0,0.82,0.6,9.61
10828.0,1.55,0.28,9.91
10841.0,1.16,-0.09,10.47
10854.0,-0.07,0.01,10.34
10867.0,-1.2,0.19,10.12
10880.0,-1.9,0.17,9.87
10893.0,-2.66,0.35,9.46
10905.0,-2.77,0.11,9.4
10918.0,-2.12,-0.12,9.58
10931.0,-0.8,-0.44,9.56
10944.0,-0.03,-0.87,9.86
10957.0,-0.06,-1.53,10.74
10970.0,-0.46,-2.09,11.47
10983.0,-0.99,-2.3,11.37
10995.0,-1.4,-2.02,10.29
11008.0,-1.49,-1.67,9.15
11021.0,-1.21,-1.7,8.61
11034.0,-0.36,-2.2,9.09
11047.0,0.5,-3.19,10.4
11060.0,0.8,-3.84,11.23
11073.0,0.85,-4.06,11.45
11086.0,0.71,-3.98,11.1
11098.0,0.58,-3.56,10.22
11111.0,0.35,-3.04,9.21
11124.0,0.03,-2.44,8.02
11137.0,-0.22,-1.99,7.18
11150.0,-0.2,-1.91,7.02
11163.0,-0.13,-1.98,7.43
11176.0,-0.01,-2.22,8.09
11188.0,0.11,-2.34,8.57
11201.0,0.14,-2.42,8.78
11214.0,0.26,-2.22,8.74
11227.0,0.26,-1.96,8.26
11240.0,0.3,-1.87,7.96
11253.0,-0.01,-2.04,8.06
11266.0,-0.24,-2.47,8.92
11279.0,-0.45,-2.93,10.16
11291.0,-0.14,-3.34,11.25
11304.0,0.42,-3.7,11.64
11317.0,0.43,-3.64,10.84
11330.0,0.32,-3.32,9.73
11343.0,0.1,-3.27,9.26
11356.0,0.09,-3.31,9.5
11369.0,0.4,-3.61,10.22
11381.0,0.64,-3.53,10.38
11394.0,0.62,-3.08,9.79
11407.0,0.22,-2.61,8.95
11420.0,-0.4,-2.15,8.4
11433.0,-0.44,-2.08,8.63
11446.0,-0.19,-2.34,9.42
11459.0,0.31,-2.43,9.86
11471.0,0.83,-2.16,9.73
11484.0,0.83,-1.69,9.36
11497.0,0.33,-1.03,8.93
11510.0,-0.6,-0.58,8.9
11523.0,-1.17,-0.42,9.55
11536.0,-1.27,-0.42,10.28
11549.0,-0.65,-0.31,10.48
11562.0,0.34,-0.4,10.88
11574.0,1.03,-0.6,11.4
11587.0,0.92,-0.52,11.55
11600.0,0.27,0.08,11.16
11613.0,-0.33,0.59,11.0
11626.0,-0.85,1.18,10.82
11639.0,-0.93,1.59,10.77
11652.0,-0.41,1.52,11.16
11664.0,-0.07,1.51,11.5
11677.0,0.01,1.53,11.73
11690.0,-0.09,1.56,11.95
11703.0,0.05,1.6,11.91
11716.0,0.23,1.73,11.78
11729.0,0.27,1.72,11.76
11741.0,0.13,1.73,11.7
11754.0,-0.09,1.75,11.62
11767.0,-0.26,1.75,11.68
11780.0,-0.13,1.57,11.87
11793.0,0.39,1.22,12.04
11806.0,1.03,0.9,11.81
11819.0,1.54,0.83,11.2
11831.0,1.37,0.86,10.49
11844.0,0.63,1.05,9.99
11857.0,-0.11,1.31,9.78
11870.0,-0.21,1.22,10.11
11883.0,0.36,0.78,10.57
11896.0,0.88,0.31,11.1
11908.0,0.92,-0.15,11.54
11921.0,0.48,-0.45,11.76
11934.0,-0.2,-0.33,11.54
11947.0,-0.68,-0.06,10.51
11960.0,-0.98,0.21,9.39
11973.0,-0.6,0.12,8.76
11986.0,-0.0,-0.06,8.62
11999.0,0.44,-0.3,9.01
12011.0,0.3,-0.58,9.8
12024.0,-0.08,-0.85,10.0
12037.0,-0.27,-1.21,9.59
12050.0,0.18,-1.57,9.49
12063.0,0.88,-1.87,9.42
12076.0,0.73,-1.67,9.13
12089.0,-0.21,-1.34,8.87
12101.0,-1.21,-0.99,8.7
12114.0,-1.66,-0.77,8.64
12127.0,-1.51,-0.78,8.17
12140.0,-0.94,-0.99,7.85
12153.0,0.17,-1.59,8.46
12166.0,0.7,-2.24,9.44
12179.0,0.59,-2.71,10.32
12192.0,0.07,-3.13,11.16
12204.0,-0.29,-3.33,11.52
12217.0,-0.57,-3.14,11.28
12230.0,-0.5,-3.06,11.08
12243.0,-0.17,-3.13,11.27
12256.0,0.06,-3.19,11.21
12269.0,-0.04,-2.93,10.68
12282.0,-0.3,-2.69,9.99
12294.0,-0.77,-2.57,9.45
12307.0,-1.04,-2.62,9.23
12320.0,-1.1,-2.87,9.39
12333.0,-0.79,-3.22,9.61
12346.0,-0.22,-3.48,9.76
12359.0,0.17,-3.62,9.86
12372.0,0.28,-3.65,9.87
12385.0,-0.01,-3.62,9.68
12397.0,-0.28,-3.41,9.18
12410.0,-0.45,-3.21,8.56
12423.0,-0.57,-3.22,8.47
12436.0,-0.56,-3.55,9.2
12449.0,-0.34,-3.71,9.75
12462.0,-0.04,-3.79,9.97
12475.0,-0.03,-3.64,9.7
12488.0,-0.44,-3.42,9.06
12500.0,-0.93,-3.25,8.53
12513.0,-1.23,-3.22,8.45
12526.0,-0.88,-3.28,8.79
12539.0,-0.03,-3.3,9.08
12552.0,0.46,-3.14,8.67
12565.0,0.59,-2.76,7.82
12578.0,1.18,-2.66,7.5
12591.0,1.28,-2.63,7.64
12603.0,0.88,-2.85,8.73
12616.0,-0.1,-3.07,9.76
12629.0,-0.88,-3.06,10.53
12642.0,-1.31,-2.95,10.82
12655.0,-1.52,-2.56,10.71
12668.0,-0.99,-2.2,10.61
12681.0,-0.51,-2.02,10.71
12693.0,-0.07,-1.96,11.33
12706.0,-0.17,-1.57,11.4
12719.0,-0.4,-0.65,10.66
12732.0,-0.26,0.07,10.15
12745.0,0.13,0.49,10.1
12758.0,0.33,0.93,10.13
12771.0,0.13,1.36,10.12
12783.0,-0.21,1.8,10.31
12796.0,-0.18,1.63,11.19
12809.0,-0.25,1.7,11.81
12822.0,-0.51,1.88,11.97
12835.0,-0.77,2.04,11.97
12848.0,-0.75,2.1,12.02
