timestamp,accX,accY,accZ
2.0,-0.33,-2.15,9.58
15.0,-0.16,-1.85,8.03
28.0,-0.14,-2.29,9.87
41.0,-0.12,-2.53,10.21
54.0,-0.34,-2.67,10.12
67.0,-0.39,-2.56,9.66
79.0,-0.27,-2.23,9.28
92.0,-0.04,-1.98,8.98
105.0,0.28,-1.75,8.8
118.0,0.52,-1.58,8.7
131.0,0.56,-1.61,8.9
144.0,0.51,-1.81,9.12
157.0,0.2,-2.13,9.24
169.0,-0.09,-2.52,9.28
182.0,-0.52,-2.78,9.14
195.0,-0.76,-2.93,8.97
208.0,-0.74,-2.99,9.0
221.0,-0.49,-2.95,9.12
234.0,-0.28,-2.77,8.96
247.0,0.14,-2.55,8.63
260.0,0.47,-2.44,8.66
272.0,0.64,-2.66,8.99
285.0,0.45,-3.06,9.54
298.0,-0.03,-3.28,9.7
311.0,-0.65,-3.14,8.96
324.0,-0.79,-3.11,8.76
337.0,-0.58,-3.03,9.11
350.0,-0.01,-2.78,9.3
363.0,0.52,-2.43,9.27
375.0,0.93,-2.18,9.42
388.0,1.1,-2.01,9.54
401.0,1.13,-1.94,9.71
414.0,0.81,-2.26,10.23
427.0,0.3,-2.63,10.25
440.0,-0.14,-2.97,10.38
453.0,-0.4,-2.98,10.51
465.0,-0.46,-2.87,10.7
478.0,-0.46,-2.78,11.05
491.0,-0.44,-2.57,11.09
504.0,-0.49,-2.05,10.83
517.0,-0.55,-1.41,10.32
530.0,-0.67,-0.96,10.08
543.0,-0.88,-0.53,9.68
556.0,-1.09,-0.22,9.42
568.0,-1.12,0.08,9.24
581.0,-1.15,0.11,9.69
594.0,-1.05,-0.02,10.37
607.0,-0.75,0.24,10.4
620.0,-0.39,0.68,10.27
633.0,-0.0,1.13,10.4
646.0,0.23,1.4,10.75
658.0,0.14,1.36,11.38
671.0,-0.29,1.32,11.28
684.0,-0.88,1.39,10.56
697.0,-1.5,1.43,9.98
710.0,-2.07,1.5,9.7
723.0,-2.41,1.41,9.39
736.0,-2.63,1.5,9.51
748.0,-2.17,1.4,10.18
761.0,-1.54,1.25,11.04
774.0,-0.74,1.37,11.43
787.0,0.08,1.66,11.78
800.0,0.74,2.04,11.75
813.0,1.4,2.52,11.25
826.0,1.67,2.97,10.86
838.0,2.12,3.12,10.9
851.0,2.34,3.05,11.37
864.0,2.14,2.64,11.93
877.0,1.72,1.94,12.16
890.0,1.23,1.25,12.03
903.0,0.89,0.83,11.7
915.0,0.79,0.7,11.12
928.0,0.83,0.8,10.51
941.0,0.86,1.05,10.06
954.0,0.81,0.94,10.05
967.0,0.77,0.57,10.35
980.0,0.67,0.15,10.75
992.0,0.47,0.0,10.41
1005.0,0.16,-0.12,9.87
1018.0,-0.07,-0.34,9.69
1031.0,0.0,-0.5,9.45
1044.0,0.21,-0.53,9.37
1057.0,0.53,-0.53,9.17
1070.0,0.83,-0.63,9.33
1082.0,0.62,-1.03,10.29
1095.0,0.26,-2.17,11.24
1108.0,-0.72,-3.22,11.64
1121.0,-1.56,-3.75,11.29
1134.0,-1.91,-3.55,9.91
1147.0,-1.75,-3.07,8.94
1160.0,-1.35,-2.39,8.6
1173.0,-0.56,-2.19,8.86
1185.0,0.05,-2.04,9.12
1198.0,0.46,-1.9,9.13
1211.0,0.6,-1.99,9.39
1224.0,0.44,-2.3,9.77
1237.0,-0.01,-2.77,10.04
1250.0,-0.56,-3.2,9.88
1263.0,-0.98,-3.38,9.29
1275.0,-0.87,-3.4,9.01
1288.0,-0.35,-3.28,9.27
1301.0,0.38,-3.12,9.5
1314.0,0.43,-3.27,10.03
1327.0,0.01,-3.62,10.18
1340.0,-0.57,-4.07,10.04
1353.0,-0.99,-4.17,9.65
1366.0,-0.93,-3.92,9.09
1378.0,-0.44,-3.49,8.77
1391.0,0.04,-3.28,8.82
1404.0,0.19,-3.25,9.03
1417.0,-0.02,-3.52,9.36
1430.0,-0.49,-3.98,9.76
1443.0,-1.09,-4.44,10.01
1456.0,-1.58,-4.49,9.55
1469.0,-1.57,-4.21,8.73
1481.0,-1.48,-3.54,7.92
1494.0,-0.97,-2.88,7.51
1507.0,-0.1,-2.78,8.1
1520.0,0.61,-2.78,8.91
1533.0,0.97,-2.82,9.42
1546.0,1.06,-2.93,9.41
1559.0,0.83,-3.06,8.98
1571.0,0.65,-3.2,8.6
1584.0,0.71,-3.23,8.49
1597.0,1.08,-3.14,8.63
1610.0,1.52,-3.09,8.87
1623.0,1.74,-3.15,9.16
1636.0,1.65,-3.24,9.38
1649.0,1.3,-3.3,9.38
1661.0,0.72,-3.38,9.34
1674.0,-0.06,-3.45,9.23
1687.0,-0.86,-3.58,9.07
1700.0,-1.39,-3.62,8.99
1713.0,-1.39,-3.47,8.9
1726.0,-0.89,-3.2,9.6
1739.0,-0.1,-2.84,10.86
1752.0,0.08,-2.55,11.66
1764.0,-0.07,-2.34,11.55
1777.0,-0.38,-1.91,11.24
1790.0,-0.6,-1.59,10.99
1803.0,-1.11,-1.1,10.35
1816.0,-1.14,-0.48,9.83
1829.0,-0.88,0.03,10.07
1842.0,-0.62,0.53,10.36
1855.0,-0.32,0.93,10.47
1867.0,-0.11,1.33,10.61
1880.0,0.17,1.9,10.29
1893.0,0.64,2.49,10.21
1906.0,1.13,2.73,10.64
1919.0,0.83,2.87,10.93
1932.0,0.47,2.73,10.96
1944.0,0.47,2.3,11.88
1957.0,0.49,1.96,12.7
1970.0,0.44,1.79,12.9
1983.0,0.47,1.75,12.72
1996.0,0.56,1.64,12.76
2009.0,0.44,1.78,12.39
2021.0,0.23,2.03,11.8
2034.0,0.1,2.17,11.27
2047.0,-0.06,2.35,10.74
2060.0,-0.1,2.54,10.34
2073.0,-0.13,2.7,10.15
2086.0,-0.15,2.7,10.21
2099.0,-0.04,2.35,10.97
2111.0,-0.16,1.79,11.95
2124.0,-0.3,0.94,12.46
2137.0,-0.73,0.36,12.3
2150.0,-1.1,0.3,11.31
2163.0,-1.17,0.47,10.46
2176.0,-1.07,0.5,10.28
2189.0,-0.9,0.35,10.51
2201.0,-0.77,-0.08,11.09
2214.0,-0.64,-0.18,10.87
2227.0,-0.45,0.04,10.2
2240.0,0.0,0.2,9.79
2253.0,0.62,0.58,9.13
2266.0,1.17,1.13,8.36
2279.0,1.31,1.58,8.37
2291.0,2.11,1.51,7.99
2304.0,2.35,1.34,8.46
2317.0,2.65,0.67,9.94
2330.0,2.84,-0.29,11.73
2343.0,2.51,-1.76,13.23
2356.0,1.87,-2.87,14.02
2369.0,0.93,-2.67,12.13
2381.0,-0.05,-2.4,10.39
2394.0,-0.8,-2.34,9.1
2407.0,-1.19,-2.42,8.35
2420.0,-1.08,-2.52,8.83
2433.0,-0.71,-2.63,9.85
2446.0,-0.76,-2.8,10.32
2459.0,-0.84,-2.93,9.96
2472.0,-0.87,-2.8,9.16
2484.0,-0.91,-2.32,7.96
2497.0,-0.68,-1.97,7.51
2510.0,-0.27,-1.75,7.56
2523.0,-0.08,-1.71,7.81
2536.0,-0.22,-1.87,8.1
2549.0,-0.33,-2.18,8.33
2562.0,-0.5,-2.59,8.71
2575.0,-0.38,-3.18,9.12
2587.0,-0.2,-3.56,9.4
2600.0,-0.11,-3.47,9.25
2613.0,0.18,-3.24,9.0
2626.0,0.41,-3.27,9.15
2639.0,0.53,-3.54,9.62
2652.0,0.46,-3.81,9.93
2665.0,0.29,-4.06,10.13
2677.0,-0.04,-4.22,10.06
2690.0,-0.36,-4.26,9.79
2703.0,-0.45,-4.25,9.68
2716.0,-0.36,-4.11,9.49
2729.0,-0.27,-3.84,9.16
2742.0,-0.29,-3.55,8.94
2755.0,-0.25,-3.27,8.69
2768.0,-0.24,-3.26,8.97
2780.0,-0.07,-3.13,8.97
2793.0,0.13,-2.96,8.88
2806.0,0.42,-2.84,8.82
2819.0,0.65,-2.73,8.82
2832.0,0.95,-2.71,8.83
2845.0,1.24,-2.67,9.01
2858.0,1.17,-2.88,9.4
2870.0,0.73,-3.29,9.72
2883.0,0.17,-3.54,9.81
2896.0,-0.36,-3.46,9.34
2909.0,-0.76,-3.31,9.12
2922.0,-0.96,-3.18,9.19
2935.0,-0.84,-3.18,9.38
2948.0,-0.71,-2.99,9.53
2961.0,-0.59,-2.7,9.45
2973.0,-0.44,-2.38,9.54
2986.0,-0.36,-2.12,9.74
2999.0,-0.56,-1.85,9.54
3012.0,-0.53,-1.65,9.28
3025.0,-0.4,-1.37,9.17
3038.0,-0.4,-1.28,9.41
3051.0,-0.2,-1.48,10.15
3064.0,0.13,-1.69,11.19
3076.0,0.27,-1.85,12.01
3089.0,0.23,-1.76,11.9
3102.0,0.25,-1.48,11.38
3115.0,0.22,-1.15,11.46
3128.0,0.21,-1.01,11.8
3141.0,-0.32,-0.85,11.51
3154.0,-1.27,-0.58,10.63
3166.0,-2.13,-0.17,9.56
3179.0,-2.46,0.19,8.97
3192.0,-2.19,0.63,8.94
3205.0,-1.68,0.93,9.45
3218.0,-1.22,1.05,10.15
3231.0,-1.12,1.08,10.44
3244.0,-1.22,1.25,10.07
3256.0,-1.24,1.41,9.87
3269.0,-1.01,1.4,10.54
3282.0,-0.87,1.48,11.04
3295.0,-0.81,1.7,11.03
3308.0,-0.78,1.81,11.08
3321.0,-0.8,1.74,11.28
3334.0,-0.74,1.59,11.42
3346.0,-0.64,1.4,11.6
3359.0,-0.3,1.27,11.54
3372.0,-0.03,1.38,11.18
3385.0,0.2,1.58,10.82
3398.0,0.42,1.89,10.64
3411.0,0.38,2.04,10.74
3424.0,-0.15,1.55,11.53
3436.0,-0.88,0.48,12.08
3449.0,-1.77,-0.54,12.57
3462.0,-2.3,-1.03,12.08
3475.0,-2.18,-1.19,11.48
3488.0,-1.56,-0.79,10.52
3501.0,-0.89,-0.11,10.1
3514.0,-0.18,0.19,10.41
3527.0,0.37,-0.11,11.44
3539.0,0.33,-0.6,11.87
3552.0,-0.1,-0.83,11.0
3565.0,-0.24,-0.72,9.84
3578.0,0.05,0.06,8.29
3591.0,0.85,0.93,7.36
3604.0,1.82,1.36,7.48
3617.0,2.02,1.18,8.37
3629.0,1.67,-0.03,10.53
3642.0,0.93,-1.57,12.17
3655.0,-0.22,-2.48,12.12
3668.0,-1.17,-2.84,11.11
3681.0,-1.39,-2.52,9.37
3694.0,-0.65,-1.76,8.03
3707.0,0.59,-0.91,7.63
3719.0,1.63,-0.7,8.26
3732.0,1.73,-1.23,9.8
3745.0,1.12,-1.89,10.35
3758.0,0.06,-2.81,10.52
3771.0,-0.93,-3.58,10.52
3784.0,-1.56,-4.15,10.33
3797.0,-1.9,-3.99,9.3
3809.0,-1.52,-3.64,8.51
3822.0,-0.52,-3.23,8.47
3835.0,0.32,-2.41,8.11
3848.0,0.6,-2.04,8.23
3861.0,0.51,-2.42,8.75
3874.0,0.04,-3.21,9.33
3887.0,-0.63,-3.95,9.83
3900.0,-0.93,-4.23,9.87
3912.0,-1.07,-4.28,9.68
3925.0,-0.88,-4.22,9.4
3938.0,-0.55,-4.1,9.42
3951.0,-0.25,-3.91,9.4
3964.0,0.05,-3.67,9.09
3977.0,0.1,-3.6,9.0
3990.0,-0.12,-4.02,9.55
4002.0,-0.5,-4.47,10.0
4015.0,-0.77,-4.7,10.16
4028.0,-0.91,-4.53,9.72
4041.0,-0.8,-4.11,9.09
4054.0,-0.27,-3.59,8.62
4067.0,0.14,-3.19,8.64
4080.0,0.59,-3.07,8.83
4093.0,0.76,-3.3,9.37
4105.0,0.72,-3.97,10.56
4118.0,0.56,-4.49,11.42
4131.0,0.39,-4.7,11.83
4144.0,-0.1,-4.43,11.48
4157.0,-0.37,-4.01,10.71
4170.0,-0.23,-3.58,10.58
4183.0,0.09,-3.04,10.34
4196.0,0.4,-2.75,10.19
4208.0,0.55,-2.6,9.92
4221.0,0.41,-2.61,9.62
4234.0,0.06,-2.77,9.5
4247.0,-0.25,-2.99,9.62
4260.0,-0.46,-3.12,9.86
4273.0,-0.62,-3.0,9.92
4286.0,-0.75,-2.4,9.32
4298.0,-0.87,-1.55,8.7
4311.0,-0.89,-0.93,8.53
4324.0,-1.29,-0.33,8.18
4337.0,-1.73,0.19,7.37
4350.0,-1.92,0.27,7.44
4363.0,-1.96,-0.05,8.24
4376.0,-2.05,-0.21,8.77
4389.0,-1.99,-0.13,8.81
4401.0,-2.15,0.31,8.46
4414.0,-1.84,0.87,7.98
4427.0,-1.65,1.22,8.07
4440.0,-1.71,1.6,7.98
4453.0,-1.69,1.49,8.44
4466.0,-1.63,1.32,9.15
4479.0,-1.41,1.3,9.83
4491.0,-1.07,1.45,10.68
4504.0,-0.7,1.54,11.66
4517.0,-0.29,1.58,12.49
4530.0,0.11,1.67,13.22
4543.0,0.09,1.89,13.71
4556.0,0.15,1.83,14.05
4569.0,0.12,1.43,14.48
4581.0,-0.29,1.64,13.62
4594.0,-0.66,2.15,12.3
4607.0,-1.04,2.65,11.19
4620.0,-1.3,2.9,10.44
4633.0,-1.71,2.9,10.07
4646.0,-2.09,2.7,9.8
4659.0,-2.28,2.43,9.63
4671.0,-2.38,2.16,9.71
4684.0,-2.49,1.71,9.93
4697.0,-2.51,1.01,10.28
4710.0,-2.44,0.49,10.27
4723.0,-2.13,0.47,9.71
4736.0,-1.45,1.02,8.97
4749.0,-0.69,1.63,8.86
4761.0,-0.05,1.63,9.7
4774.0,0.02,1.11,10.82
4787.0,-0.35,0.13,11.76
4800.0,-0.83,-0.73,11.81
4813.0,-1.07,-0.89,10.89
4826.0,-0.52,-0.45,9.83
4839.0,0.22,0.3,8.98
4851.0,0.73,1.1,8.77
4864.0,0.9,1.12,9.42
4877.0,0.76,0.17,10.68
4890.0,0.44,-1.12,12.07
4903.0,0.03,-1.53,12.28
4916.0,-0.32,-1.28,11.54
4929.0,-0.42,-0.89,10.65
4941.0,-0.43,-0.8,10.21
4954.0,-0.37,-0.92,9.88
4967.0,-0.08,-1.3,9.85
4980.0,0.49,-1.58,10.65
4993.0,0.79,-1.56,11.16
5006.0,0.16,-1.64,10.6
5019.0,-0.65,-1.85,10.02
5031.0,-1.2,-2.37,10.05
5044.0,-1.53,-2.92,10.08
5057.0,-1.64,-3.2,9.69
5070.0,-1.2,-3.09,8.93
5083.0,-0.54,-2.7,8.58
5096.0,0.28,-2.3,8.81
5109.0,0.62,-2.15,9.17
5122.0,0.24,-2.53,10.16
5134.0,-0.3,-3.06,9.9
5147.0,-0.98,-3.31,9.34
5160.0,-1.1,-3.2,8.34
5173.0,-0.63,-2.91,8.2
5186.0,0.03,-2.96,9.08
5199.0,0.17,-3.22,9.91
5212.0,-0.05,-3.47,10.44
5224.0,-0.47,-3.6,10.22
5237.0,-0.87,-3.41,9.37
5250.0,-0.88,-3.1,8.5
5263.0,-0.67,-2.81,8.23
5276.0,-0.44,-2.67,8.47
5289.0,-0.46,-2.71,8.78
5302.0,-0.83,-2.83,8.82
5315.0,-1.51,-3.16,8.73
5327.0,-2.05,-3.29,8.49
5340.0,-2.07,-3.1,8.26
5353.0,-1.67,-2.77,8.17
5366.0,-1.09,-2.49,8.19
5379.0,-0.52,-2.38,8.5
5392.0,0.07,-2.4,8.92
5405.0,0.42,-2.5,9.3
5418.0,0.44,-2.71,9.5
5430.0,0.1,-2.84,9.32
5443.0,-0.36,-3.04,9.12
5456.0,-0.68,-3.38,9.18
5469.0,-0.71,-3.61,9.27
5482.0,-0.38,-3.62,9.28
5495.0,-0.14,-3.39,9.37
5508.0,-0.04,-3.13,9.4
5521.0,-0.14,-2.91,9.22
5533.0,-0.5,-2.86,8.9
5546.0,-0.71,-2.97,9.01
5559.0,-0.58,-3.27,9.75
5572.0,-0.12,-3.37,10.49
5585.0,0.28,-3.11,10.81
5598.0,0.45,-2.7,10.91
5611.0,0.27,-2.43,10.75
5623.0,-0.12,-2.12,10.35
5636.0,-0.14,-1.78,10.32
5649.0,0.17,-1.42,10.63
5662.0,0.39,-1.04,10.83
5675.0,0.54,-0.68,10.83
5688.0,0.53,-0.32,10.76
5701.0,0.27,0.04,10.56
5713.0,-0.2,0.27,10.44
5726.0,-0.63,0.37,10.67
5739.0,-1.15,0.37,10.91
5752.0,-1.68,0.53,10.58
5765.0,-2.06,0.94,10.06
5778.0,-2.42,1.35,9.52
5791.0,-2.85,1.53,9.27
5803.0,-3.03,1.23,9.91
5816.0,-3.32,1.07,10.58
5829.0,-2.96,0.91,11.19
5842.0,-2.34,1.16,11.34
5855.0,-1.85,1.5,11.49
5868.0,-1.41,1.65,11.68
5881.0,-1.1,1.79,11.88
5893.0,-0.93,1.84,11.88
5906.0,-0.74,1.88,11.67
5919.0,-0.58,2.03,11.48
5932.0,-0.56,2.11,11.12
5945.0,-0.69,2.03,10.75
5958.0,-1.01,1.87,10.53
5971.0,-1.34,1.69,10.41
5984.0,-1.64,1.45,10.29
5996.0,-1.93,1.38,10.24
6009.0,-2.2,0.96,10.7
6022.0,-2.39,0.42,11.29
6035.0,-2.48,-0.09,11.85
6048.0,-2.53,-0.51,12.22
6061.0,-2.49,-0.93,12.25
6074.0,-2.22,-0.84,11.61
6086.0,-1.39,-0.39,10.78
6099.0,-0.59,0.49,9.76
6112.0,0.23,1.42,9.12
6125.0,0.64,1.87,9.17
6138.0,0.49,1.39,9.84
6151.0,-0.18,0.46,10.4
6164.0,-0.77,-0.42,10.69
6176.0,-1.11,-0.98,10.44
6189.0,-0.97,-1.08,9.73
6202.0,-0.15,-0.55,8.91
6215.0,0.89,0.49,8.38
6228.0,1.41,1.22,8.37
6241.0,0.98,0.63,9.56
6254.0,-0.23,-0.92,10.37
6266.0,-1.39,-2.24,10.44
6279.0,-2.31,-2.89,10.01
6292.0,-2.35,-2.91,9.08
6305.0,-1.44,-2.23,8.41
6318.0,-0.02,-1.28,8.06
6331.0,0.86,-0.69,8.57
6344.0,0.77,-1.19,9.86
6357.0,-0.33,-2.4,10.36
6369.0,-1.24,-3.33,10.51
6382.0,-2.01,-3.6,10.17
6395.0,-2.09,-3.15,9.22
6408.0,-1.26,-2.67,9.03
6421.0,-0.31,-2.42,9.52
6434.0,0.36,-2.18,9.59
6447.0,0.73,-1.8,9.08
6460.0,0.49,-1.5,9.12
6472.0,0.13,-2.07,9.53
6485.0,-0.63,-2.89,9.76
6498.0,-1.4,-3.57,9.84
6511.0,-1.51,-3.83,9.51
6524.0,-1.36,-3.65,9.26
6537.0,-0.94,-3.27,9.1
6550.0,-0.47,-3.1,9.18
6562.0,-0.28,-3.05,9.31
6575.0,-0.37,-3.18,9.39
6588.0,-0.51,-3.42,9.33
6601.0,-0.51,-3.53,9.22
6614.0,-0.25,-3.45,9.2
6627.0,0.04,-3.22,9.21
6640.0,0.25,-3.0,9.05
6653.0,0.28,-2.8,8.81
6665.0,0.2,-2.68,8.58
6678.0,0.1,-2.52,8.18
6691.0,0.0,-2.26,7.74
6704.0,-0.08,-2.28,7.67
6717.0,-0.03,-2.57,8.01
6730.0,0.03,-2.8,8.37
6743.0,0.02,-3.04,8.87
6755.0,-0.18,-3.31,9.38
6768.0,-0.56,-3.54,9.5
6781.0,-1.29,-3.56,9.23
6794.0,-1.67,-3.38,8.92
6807.0,-1.39,-3.04,9.2
6820.0,-0.81,-2.75,9.85
6833.0,-0.41,-2.65,10.64
6846.0,-0.03,-2.56,11.41
6858.0,-0.1,-2.39,11.67
6871.0,-0.4,-2.43,11.8
6884.0,-0.93,-2.4,11.66
6897.0,-1.34,-2.21,11.24
6910.0,-1.54,-1.84,10.74
6923.0,-1.69,-1.29,10.26
6936.0,-1.73,-0.87,10.06
6949.0,-1.46,-0.71,10.35
6961.0,-1.1,-0.63,10.68
6974.0,-1.01,-0.46,10.85
6987.0,-0.85,-0.16,10.77
7000.0,-1.07,0.35,10.24
7013.0,-1.43,0.73,9.61
7026.0,-1.79,0.94,9.12
7039.0,-1.96,1.13,8.79
7051.0,-1.77,1.32,8.96
7064.0,-1.64,1.52,9.47
7077.0,-1.55,1.69,9.85
7090.0,-1.47,1.7,10.27
7103.0,-1.48,1.7,10.5
7116.0,-1.31,1.72,10.45
7129.0,-1.28,1.74,10.88
7142.0,-1.38,1.98,10.81
7154.0,-1.37,2.15,10.71
7167.0,-1.27,1.99,11.15
7180.0,-1.23,1.93,11.65
7193.0,-1.07,2.0,11.94
7206.0,-1.13,2.03,11.74
7219.0,-1.13,2.07,11.46
7232.0,-0.82,2.26,11.29
7244.0,-0.87,2.61,10.84
7257.0,-0.83,2.84,11.0
7270.0,-1.07,2.84,11.32
7283.0,-1.85,2.5,11.32
7296.0,-2.68,1.87,11.31
7309.0,-3.34,1.05,11.5
7322.0,-3.6,0.54,11.57
7334.0,-3.39,0.24,11.37
7347.0,-2.5,0.43,10.79
7360.0,-1.49,1.05,10.11
7373.0,-0.61,1.51,9.83
7386.0,-0.13,1.75,9.8
7399.0,0.09,1.52,10.07
7412.0,-0.45,1.09,10.53
7424.0,-1.36,0.29,10.49
7437.0,-2.35,-0.59,10.34
7450.0,-2.54,-1.31,10.2
7463.0,-1.58,-1.57,10.62
7476.0,-0.54,-1.15,11.2
7489.0,-0.15,-0.83,11.62
7502.0,-0.5,-1.07,11.64
7514.0,-1.41,-1.41,11.02
7527.0,-2.21,-1.54,9.76
7540.0,-2.28,-1.52,8.61
7553.0,-1.37,-1.26,8.15
7566.0,-0.52,-0.54,8.24
7579.0,0.18,0.12,8.3
7592.0,0.28,0.31,8.55
7605.0,-0.11,-0.18,9.04
7617.0,-0.51,-1.05,9.49
7630.0,-0.92,-1.71,9.74
7643.0,-1.13,-2.01,9.59
7656.0,-0.93,-1.96,9.14
7669.0,-0.63,-1.85,8.85
7682.0,-0.32,-1.77,8.74
7695.0,0.07,-1.67,8.78
7707.0,0.34,-1.66,9.04
7720.0,0.4,-1.83,9.63
7733.0,-0.03,-2.3,9.96
7746.0,-0.54,-2.9,9.95
7759.0,-1.04,-3.63,10.16
7772.0,-1.07,-4.06,10.43
7785.0,-0.79,-3.99,10.53
7798.0,-0.23,-3.54,10.05
7810.0,0.4,-3.08,9.79
7823.0,0.57,-2.61,9.71
7836.0,0.53,-2.62,9.76
7849.0,-0.01,-2.91,9.73
7862.0,-0.74,-3.16,9.06
7875.0,-1.04,-3.32,8.7
7888.0,-1.12,-3.2,8.5
7901.0,-0.97,-3.06,8.59
7913.0,-0.69,-2.91,8.71
7926.0,-0.61,-2.66,8.66
7939.0,-0.61,-2.38,8.44
7952.0,-0.61,-2.19,8.29
7965.0,-0.56,-2.07,8.29
7978.0,-0.4,-2.16,8.39
7991.0,-0.3,-2.4,8.67
8004.0,-0.28,-2.64,8.99
8016.0,-0.26,-2.87,9.47
8029.0,-0.29,-3.03,9.74
8042.0,-0.54,-2.95,9.39
8055.0,-0.8,-2.79,9.14
8068.0,-0.73,-2.86,9.18
8081.0,-0.54,-2.84,9.3
8094.0,-0.3,-2.68,9.66
8107.0,-0.1,-2.42,9.97
8119.0,-0.24,-2.14,10.03
8132.0,-0.56,-1.85,9.7
8145.0,-0.84,-1.57,9.3
8158.0,-1.02,-1.36,9.26
8171.0,-1.22,-1.4,9.46
8184.0,-1.24,-1.36,9.4
8197.0,-1.14,-1.1,9.31
8210.0,-1.16,-0.8,9.2
8222.0,-1.13,-0.82,9.65
8235.0,-1.53,-1.21,10.65
8248.0,-1.56,-1.71,11.42
8261.0,-1.46,-1.93,11.99
8274.0,-1.41,-1.34,11.72
8287.0,-1.1,-0.56,10.97
8300.0,-1.08,-0.07,10.74
8313.0,-1.12,0.29,10.51
8325.0,-1.52,0.48,10.1
8338.0,-2.16,0.58,9.69
8351.0,-2.77,0.6,9.18
8364.0,-3.26,0.7,8.76
8377.0,-3.38,0.74,9.2
8390.0,-3.23,0.65,10.15
8403.0,-2.92,0.61,10.98
8415.0,-2.55,0.71,11.66
8428.0,-2.31,1.03,11.73
8441.0,-2.14,1.24,12.01
8454.0,-2.2,1.27,12.27
8467.0,-2.33,1.31,12.38
8480.0,-2.42,1.37,12.41
8493.0,-2.44,1.48,12.34
8505.0,-2.44,1.55,12.16
8518.0,-2.09,1.67,12.02
8531.0,-1.88,1.76,12.13
8544.0,-1.64,1.72,12.33
8557.0,-1.75,1.5,12.41
8570.0,-2.0,1.28,12.09
8583.0,-2.2,1.16,11.74
8595.0,-2.37,1.22,11.23
8608.0,-2.66,1.2,10.29
8621.0,-2.95,1.0,9.19
8634.0,-2.76,0.7,8.49
8647.0,-1.89,0.26,8.75
8660.0,-0.83,0.0,9.43
8673.0,0.19,0.19,9.77
8685.0,0.71,0.78,9.6
8698.0,1.17,1.03,9.64
8711.0,1.35,0.61,10.24
8724.0,1.22,0.0,10.91
8737.0,1.11,-0.46,11.05
8750.0,1.05,-0.6,10.61
8762.0,1.1,-0.34,10.02
8775.0,1.11,0.06,9.69
8788.0,0.95,0.27,9.39
8801.0,0.73,-0.19,9.65
8814.0,0.56,-0.75,9.79
8827.0,0.27,-1.0,9.93
8840.0,-0.01,-1.11,9.56
8852.0,-0.04,-1.01,8.96
8865.0,0.19,-0.64,8.41
8878.0,0.58,-0.29,7.86
8891.0,0.6,-0.37,7.87
8904.0,0.23,-0.99,8.29
8917.0,-0.42,-1.75,8.35
8930.0,-0.69,-2.24,8.26
8943.0,-0.55,-2.34,8.55
8955.0,-0.3,-2.58,9.19
8968.0,-0.5,-3.01,9.99
8981.0,-0.77,-3.5,10.4
8994.0,-1.15,-3.89,10.4
9007.0,-1.68,-4.05,10.38
9020.0,-1.8,-4.07,9.72
9033.0,-1.64,-3.76,9.17
9046.0,-1.09,-3.28,8.84
9058.0,-0.42,-2.82,8.89
9071.0,-0.03,-2.69,9.27
9084.0,-0.18,-2.93,9.73
9097.0,-0.54,-3.36,10.07
9110.0,-0.87,-3.69,10.04
9123.0,-1.06,-3.69,9.74
9136.0,-1.05,-3.54,9.36
9149.0,-0.85,-3.43,9.47
9161.0,-0.6,-3.38,9.6
9174.0,-0.44,-3.36,9.88
9187.0,-0.42,-3.37,10.01
9200.0,-0.41,-3.22,9.86
9213.0,-0.72,-2.9,9.3
9226.0,-0.91,-2.67,8.8
9239.0,-0.94,-2.48,8.51
9252.0,-0.77,-2.42,8.52
9264.0,-0.44,-2.34,8.74
9277.0,-0.08,-2.35,8.98
9290.0,0.14,-2.34,9.21
9303.0,0.23,-2.5,9.42
9316.0,0.25,-2.72,9.45
9329.0,0.1,-2.92,9.39
9342.0,-0.01,-3.13,9.38
9354.0,-0.11,-3.33,9.6
9367.0,-0.06,-3.6,9.95
9380.0,0.36,-3.92,10.71
9393.0,0.59,-3.88,10.85
9406.0,0.34,-3.49,10.38
9419.0,-0.2,-3.36,9.75
9432.0,-0.62,-3.41,9.57
9445.0,-0.78,-3.49,9.84
9457.0,-0.11,-3.57,10.39
9470.0,0.53,-3.56,10.82
9483.0,0.95,-3.14,10.51
9496.0,1.21,-2.41,10.28
9509.0,1.54,-1.75,10.24
9522.0,1.63,-1.08,9.77
9535.0,1.36,-0.48,8.99
9547.0,0.69,-0.1,8.09
9560.0,-0.18,0.14,7.38
9573.0,-0.85,0.08,7.3
9586.0,-1.04,-0.05,7.95
9599.0,-0.91,-0.19,8.92
9612.0,-0.76,-0.18,9.66
9625.0,-0.49,-0.04,10.01
9638.0,-0.34,0.12,10.51
9650.0,-0.37,0.15,10.67
9663.0,-0.58,0.13,10.84
9676.0,-0.96,0.26,10.69
9689.0,-1.35,0.59,10.15
9702.0,-1.34,0.78,10.04
9715.0,-0.98,0.86,10.41
9728.0,-0.24,1.0,11.1
9740.0,0.35,1.29,11.86
9753.0,0.86,1.47,12.53
9766.0,1.19,1.47,13.07
9779.0,1.53,1.24,13.69
9792.0,1.62,1.1,13.96
9805.0,1.59,1.15,13.45
9817.0,1.45,1.35,12.71
9830.0,1.16,1.66,12.19
9843.0,0.69,1.71,11.58
9856.0,-0.08,1.32,11.3
9869.0,-0.83,0.85,11.1
9882.0,-1.28,0.62,10.77
9895.0,-1.36,0.53,10.71
9907.0,-1.13,0.35,10.9
9920.0,-0.61,0.24,11.0
9933.0,-0.03,0.37,11.12
9946.0,0.37,0.63,11.03
9959.0,0.38,0.68,10.89
9972.0,0.23,0.46,10.82
9984.0,0.12,0.22,10.29
9997.0,0.09,0.11,10.09
10010.0,0.37,0.34,9.67
10023.0,0.46,0.59,9.39
10036.0,0.51,0.5,9.41
10049.0,0.41,0.3,9.48
10062.0,0.39,0.0,9.19
10074.0,0.44,-0.16,8.65
10087.0,0.91,-0.05,9.07
10100.0,0.77,0.0,10.08
10113.0,0.23,-0.67,10.81
10126.0,-1.01,-1.71,11.24
10139.0,-2.19,-2.64,11.11
10152.0,-2.46,-3.59,11.01
10164.0,-2.69,-4.06,11.13
10177.0,-2.27,-4.04,11.42
10190.0,-2.03,-3.47,10.72
10203.0,-1.46,-2.55,9.68
10216.0,-1.33,-1.86,8.89
10229.0,-1.38,-1.57,8.45
10242.0,-1.52,-1.87,8.71
10255.0,-1.95,-2.55,8.96
10267.0,-1.92,-2.84,8.65
10280.0,-1.38,-2.56,7.99
10293.0,-0.85,-2.63,8.53
10306.0,-0.42,-3.04,9.54
10319.0,-0.34,-3.51,10.33
10332.0,-0.6,-3.9,10.55
10345.0,-1.29,-4.33,10.19
10358.0,-1.68,-4.49,9.71
10370.0,-1.66,-4.32,9.29
10383.0,-1.47,-4.16,9.13
10396.0,-0.94,-4.02,9.21
10409.0,-0.53,-3.7,9.39
10422.0,-0.48,-3.34,9.22
10435.0,-0.57,-3.27,9.05
10448.0,-0.82,-3.31,8.82
10461.0,-1.17,-3.46,8.74
10473.0,-1.15,-3.46,8.51
10486.0,-1.06,-3.28,8.18
10499.0,-0.87,-3.08,7.84
10512.0,-0.64,-2.98,7.82
10525.0,-0.7,-2.92,7.9
10538.0,-0.64,-2.98,8.03
10551.0,-0.57,-2.99,8.29
10564.0,-0.54,-2.99,8.41
10576.0,-0.68,-2.95,8.2
10589.0,-0.64,-2.94,8.15
10602.0,-0.51,-2.93,8.03
10615.0,-0.2,-3.02,8.0
10628.0,0.2,-3.15,8.46
10641.0,0.68,-3.39,8.95
10654.0,0.99,-3.44,9.19
10666.0,0.93,-3.42,9.35
10679.0,0.18,-3.37,8.91
10692.0,-0.44,-3.26,8.05
10705.0,-0.93,-3.35,8.0
10718.0,-1.13,-3.62,8.79
10731.0,-1.06,-3.88,9.89
10744.0,-0.86,-4.03,10.67
10757.0,-0.69,-3.97,11.04
10769.0,-0.64,-3.68,10.91
10782.0,-0.62,-3.25,10.73
10795.0,-0.53,-2.91,10.68
10808.0,-0.62,-2.66,10.93
10821.0,-1.05,-2.33,10.63
10834.0,-1.44,-2.01,10.16
10847.0,-1.59,-1.51,9.63
10860.0,-1.63,-0.87,9.7
10872.0,-1.41,-0.59,10.21
10885.0,-1.26,-0.47,10.83
10898.0,-1.1,-0.53,11.37
10911.0,-1.11,-0.4,11.31
10924.0,-0.86,-0.21,11.36
10937.0,-0.43,0.06,11.53
10950.0,0.17,0.64,11.77
10963.0,0.62,1.49,11.95
10975.0,0.82,2.08,12.22
10988.0,0.88,2.36,12.54
11001.0,0.6,2.22,12.61
11014.0,0.05,1.81,12.69
11027.0,-0.76,1.43,12.53
11040.0,-1.34,1.09,12.31
11052.0,-1.55,1.01,12.16
11065.0,-1.5,1.13,12.1
11078.0,-1.09,1.45,12.0
11091.0,-0.68,1.88,12.01
11104.0,-0.25,2.19,11.88
11117.0,0.18,2.47,11.5
11130.0,0.23,2.68,10.96
11142.0,0.16,2.75,10.42
11155.0,-0.06,2.74,9.88
11168.0,-0.21,2.56,9.54
11181.0,-0.18,2.29,9.56
11194.0,-0.15,2.17,9.51
11207.0,0.05,2.38,9.03
11220.0,0.3,2.76,8.44
11232.0,0.4,2.96,8.26
11245.0,0.2,2.69,9.02
11258.0,-0.02,1.59,9.99
11271.0,-0.66,0.3,10.82
11284.0,-0.85,-0.52,11.0
11297.0,-0.77,-0.6,10.37
11310.0,0.07,-0.2,9.7
11322.0,0.93,0.69,9.08
11335.0,1.66,1.4,9.13
11348.0,2.23,1.45,9.94
11361.0,2.27,0.76,11.36
11374.0,1.76,-0.35,12.66
11387.0,0.45,-1.48,13.31
11399.0,-0.65,-2.2,12.42
11412.0,-1.35,-2.42,10.57
11425.0,-1.05,-2.0,8.62
11438.0,0.41,-0.91,7.23
11451.0,1.62,0.76,6.9
11464.0,2.65,1.63,7.3
11477.0,2.73,1.19,8.64
11489.0,1.63,-0.39,9.91
11502.0,0.46,-2.06,10.26
11515.0,-0.64,-3.03,9.97
11528.0,-1.34,-3.62,9.55
11541.0,-1.27,-4.01,9.41
11554.0,-0.84,-3.84,9.32
11567.0,-0.12,-3.49,9.52
11580.0,0.18,-3.35,9.76
11592.0,0.1,-3.62,9.87
11605.0,-0.38,-3.99,9.96
11618.0,-0.88,-4.39,10.01
11631.0,-1.28,-4.82,9.98
11644.0,-1.15,-5.11,10.07
11657.0,-0.88,-4.9,10.08
11670.0,-0.51,-4.58,10.14
11683.0,-0.45,-4.43,10.0
11695.0,-0.63,-4.44,9.99
11708.0,-0.74,-4.39,10.02
11721.0,-0.72,-4.2,10.09
11734.0,-0.84,-4.04,10.12
11747.0,-1.1,-3.92,9.73
11760.0,-1.39,-3.78,9.32
11773.0,-1.49,-3.55,8.72
11786.0,-1.6,-3.28,8.17
11798.0,-1.54,-2.98,8.21
11811.0,-1.32,-2.85,8.57
11824.0,-1.16,-2.78,8.84
11837.0,-1.2,-2.76,8.71
11850.0,-1.23,-2.73,8.44
11863.0,-1.11,-2.57,8.32
11876.0,-0.82,-2.33,7.99
11889.0,-0.39,-2.18,7.96
11901.0,-0.14,-2.23,8.45
11914.0,-0.17,-2.6,9.51
11927.0,-0.39,-3.06,10.05
11940.0,-0.73,-3.51,10.64
11953.0,-0.85,-3.83,11.07
11966.0,-0.64,-3.78,11.35
11979.0,-0.72,-3.41,10.99
11992.0,-0.96,-2.92,10.18
12004.0,-0.75,-2.07,9.36
12017.0,-0.99,-1.42,8.28
12030.0,-1.5,-0.68,7.23
12043.0,-1.62,-0.27,7.06
12056.0,-1.4,-0.05,7.11
12069.0,-1.4,-0.18,7.53
12082.0,-1.71,-0.31,7.64
12095.0,-1.5,-0.04,7.4
12107.0,-1.59,0.37,7.73
12120.0,-1.98,0.54,8.4
12133.0,-2.0,0.19,8.67
12146.0,-1.64,-0.21,8.9
12159.0,-0.81,0.07,8.97
12172.0,-0.09,0.73,9.39
12185.0,0.11,1.4,9.82
12197.0,0.62,1.47,10.77
12210.0,0.76,0.99,11.9
12223.0,0.49,0.23,12.7
12236.0,0.02,-0.25,12.69
12249.0,-1.1,-0.25,11.97
12262.0,-1.99,0.03,11.15
12275.0,-2.59,0.18,10.86
12287.0,-2.09,-0.14,12.19
12300.0,-1.74,0.28,11.68
12313.0,-1.1,0.55,12.02
12326.0,-0.4,0.3,13.16
12339.0,0.06,0.05,14.54
12352.0,0.23,-0.12,15.24
12365.0,0.37,-0.26,14.75
12377.0,0.55,-0.24,13.77
12390.0,0.77,0.04,12.93
12403.0,0.81,0.57,12.34
12416.0,0.5,0.95,12.12
12429.0,-0.27,1.14,11.86
12442.0,-1.28,0.81,11.73
12455.0,-1.48,0.5,10.67
12467.0,-0.96,-0.34,11.55
12480.0,-0.72,-0.36,11.0
12493.0,-0.33,0.08,10.24
12506.0,-0.26,1.01,8.46
12519.0,-0.48,1.48,8.55
12532.0,-0.04,1.64,9.22
12545.0,0.17,1.15,10.28
12557.0,-0.22,0.51,10.86
12570.0,-1.05,0.16,9.85
12583.0,-1.67,-0.17,9.26
12596.0,-1.5,-0.55,9.47
12609.0,-1.37,-0.71,9.67
12622.0,-1.01,-0.82,10.12
12635.0,-1.07,-1.08,10.91
12647.0,-0.65,-1.22,10.62
12660.0,0.04,-1.69,10.61
12673.0,-0.48,-1.76,10.29
12686.0,-0.88,-1.53,9.02
12699.0,-1.11,-1.56,8.3
12712.0,-1.24,-2.17,9.28
12725.0,-1.13,-2.79,10.52
12738.0,-0.94,-3.02,11.01
12750.0,-0.71,-3.06,10.57
12763.0,-0.87,-2.56,9.56
12776.0,-0.66,-1.85,8.41
12789.0,-0.2,-1.29,7.94
12802.0,0.34,-1.05,8.46
12815.0,0.6,-1.36,9.45
12828.0,0.43,-1.82,10.02
12841.0,0.02,-2.14,9.9
12853.0,-0.46,-2.2,9.18
