timestamp,accX,accY,accZ
2.0,-0.67,-5.24,8.37
15.0,0.04,-3.93,6.8
28.0,0.88,-4.28,8.19
41.0,1.7,-4.11,8.61
54.0,2.4,-3.81,8.92
67.0,2.55,-3.8,9.7
79.0,1.92,-4.05,9.96
92.0,0.81,-4.18,9.2
105.0,0.24,-4.05,8.0
118.0,0.43,-3.95,8.15
131.0,1.14,-3.91,9.21
144.0,1.56,-3.76,10.09
157.0,1.4,-3.49,10.86
169.0,1.42,-3.3,10.83
182.0,0.85,-2.56,9.87
195.0,0.51,-1.77,9.03
208.0,0.31,-1.15,8.89
221.0,0.38,-0.57,8.8
234.0,0.46,-0.08,9.24
247.0,0.43,0.14,10.18
259.0,0.5,0.55,10.64
272.0,0.4,1.14,10.71
285.0,0.27,1.67,10.6
298.0,0.07,2.31,10.35
311.0,0.07,2.67,10.35
324.0,-0.06,2.92,10.49
336.0,-0.19,3.41,9.94
349.0,-0.33,3.74,9.81
362.0,-0.21,3.87,10.46
375.0,0.38,4.07,11.7
388.0,0.65,4.1,12.67
401.0,0.15,3.86,13.16
414.0,-0.61,3.52,13.17
426.0,-1.95,2.93,12.98
439.0,-3.0,2.24,12.94
452.0,-3.41,1.74,13.23
465.0,-3.26,1.54,13.42
478.0,-2.98,1.53,13.33
491.0,-2.63,1.72,12.85
504.0,-2.19,1.93,12.23
516.0,-1.9,1.66,12.43
529.0,-1.52,1.18,13.09
542.0,-1.31,0.94,13.2
555.0,-1.25,0.73,13.02
568.0,-1.29,0.66,12.58
581.0,-1.08,1.02,11.6
594.0,-0.41,1.23,11.06
606.0,0.33,1.28,10.56
619.0,1.37,1.22,10.44
632.0,2.27,1.19,10.22
645.0,2.95,1.38,10.03
658.0,2.96,1.39,9.57
671.0,2.28,0.89,9.09
683.0,1.45,0.09,8.8
696.0,0.98,-0.58,8.79
709.0,0.88,-1.23,9.03
722.0,0.67,-1.83,9.31
735.0,0.12,-2.36,9.23
748.0,-0.56,-2.99,9.15
761.0,-0.66,-3.31,9.06
773.0,-0.28,-3.2,8.58
786.0,0.07,-3.17,8.12
799.0,-0.01,-3.46,8.34
812.0,-0.23,-3.95,8.82
825.0,-0.08,-4.45,8.6
838.0,0.14,-5.05,9.33
851.0,0.12,-5.79,10.29
864.0,-0.36,-6.33,10.52
876.0,-0.92,-6.7,10.31
889.0,-1.08,-6.67,9.65
902.0,-0.95,-6.45,9.17
915.0,-0.64,-6.45,9.48
928.0,-0.55,-6.56,9.79
941.0,-0.66,-6.73,10.35
954.0,-0.9,-6.76,10.83
967.0,-0.86,-6.45,10.44
979.0,-0.63,-6.1,10.14
992.0,-0.57,-5.79,9.71
1005.0,-0.83,-5.86,9.45
1018.0,-0.55,-5.89,9.67
1031.0,0.26,-5.44,9.42
1044.0,1.24,-4.82,9.41
1057.0,1.88,-4.23,9.42
1069.0,2.06,-3.66,9.05
1082.0,1.82,-2.96,8.31
1095.0,1.28,-2.41,7.76
1108.0,0.81,-2.04,7.29
1121.0,0.9,-1.4,6.6
1134.0,1.33,-0.78,6.72
1147.0,1.99,-0.51,7.87
1159.0,2.13,-0.33,8.61
1172.0,1.64,-0.09,8.65
1185.0,0.72,0.21,7.63
1198.0,0.08,0.43,7.41
1211.0,-0.19,0.49,7.46
1224.0,0.13,0.51,8.29
1237.0,0.81,0.6,9.68
1249.0,1.11,0.88,10.41
1262.0,1.2,1.34,10.54
1275.0,1.17,1.9,10.28
1288.0,1.08,2.41,10.11
1301.0,0.93,2.72,9.99
1314.0,0.74,2.9,10.32
1326.0,0.69,2.91,11.12
1339.0,0.59,2.92,11.86
1352.0,0.36,3.09,12.09
1365.0,-0.03,3.29,12.14
1378.0,-0.4,3.39,12.04
1391.0,-0.67,3.37,12.34
1404.0,-0.85,3.06,12.84
1416.0,-1.09,2.78,13.14
1429.0,-1.21,2.61,13.23
1442.0,-1.21,2.61,13.09
1455.0,-1.06,2.72,12.84
1468.0,-1.05,2.81,12.48
1481.0,-1.12,2.8,12.2
1494.0,-1.29,2.54,12.16
1506.0,-1.4,2.07,12.38
1519.0,-1.66,1.6,12.45
1532.0,-1.71,1.32,12.16
1545.0,-1.34,1.3,11.92
1558.0,-0.82,1.42,11.85
1571.0,-0.68,1.55,11.46
1584.0,-0.92,1.61,10.75
1596.0,-0.57,1.45,10.57
1609.0,0.22,1.37,11.13
1622.0,1.22,1.53,11.45
1635.0,1.84,1.84,11.14
1648.0,1.54,1.6,10.51
1661.0,0.34,0.7,9.88
1674.0,-0.89,-0.63,9.49
1686.0,-1.17,-1.39,9.32
1699.0,-0.11,-1.01,8.03
1712.0,0.68,-1.02,8.08
1725.0,0.63,-1.74,8.6
1738.0,0.08,-2.62,8.82
1751.0,-0.43,-3.37,8.99
1764.0,-0.08,-3.56,8.97
1777.0,0.72,-3.23,8.54
1789.0,1.02,-3.51,8.8
1802.0,0.37,-4.55,9.62
1815.0,-0.5,-5.51,10.36
1828.0,-0.9,-5.83,9.92
1841.0,-0.68,-5.64,9.24
1854.0,-0.11,-5.39,8.9
1867.0,0.03,-5.49,9.13
1879.0,-0.32,-5.83,9.31
1892.0,-0.71,-6.29,9.61
1905.0,-0.95,-6.47,9.74
1918.0,-0.95,-6.29,9.21
1931.0,-0.93,-6.14,8.77
1944.0,-1.12,-6.13,8.74
1957.0,-1.32,-6.35,9.44
1970.0,-1.5,-6.29,9.72
1982.0,-1.31,-5.85,8.95
1995.0,-0.9,-5.46,8.27
2008.0,-0.22,-5.45,8.48
2021.0,0.58,-5.23,8.37
2034.0,1.2,-4.8,8.05
2047.0,1.39,-4.49,8.21
2060.0,1.34,-4.21,8.03
2072.0,1.2,-3.98,7.81
2085.0,0.79,-3.77,7.97
2098.0,0.57,-3.56,8.05
2111.0,0.46,-2.95,7.34
2124.0,0.67,-2.4,7.13
2137.0,1.13,-1.98,8.08
2150.0,1.57,-1.59,9.03
2162.0,1.87,-1.19,9.59
2175.0,1.76,-0.75,9.61
2188.0,1.09,-0.39,9.34
2201.0,0.49,-0.01,8.69
2214.0,0.13,0.41,7.86
2227.0,0.2,0.61,8.07
2240.0,0.44,0.22,10.13
2252.0,0.49,-0.01,11.51
2265.0,0.36,0.25,11.74
2278.0,0.12,0.65,11.38
2291.0,0.02,1.02,11.29
2304.0,-0.24,1.25,11.94
2317.0,-0.54,1.21,12.9
2330.0,-0.94,1.36,13.0
2342.0,-1.2,1.62,12.94
2355.0,-1.28,1.83,13.11
2368.0,-1.09,2.02,13.36
2381.0,-0.91,2.06,13.77
2394.0,-0.94,1.93,13.89
2407.0,-0.9,1.77,14.13
2420.0,-0.79,1.48,14.64
2432.0,-0.61,1.33,14.63
2445.0,-0.51,1.42,13.91
2458.0,-0.41,1.61,12.88
2471.0,-0.14,1.86,12.1
2484.0,0.19,2.08,11.62
2497.0,0.37,1.95,11.88
2510.0,0.12,1.52,12.32
2522.0,-0.39,1.07,12.2
2535.0,-0.84,0.65,11.8
2548.0,-1.05,0.37,11.23
2561.0,-0.76,0.34,10.88
2574.0,0.08,0.58,10.62
2587.0,0.77,1.02,9.87
2599.0,1.19,1.2,9.34
2612.0,1.12,0.82,9.48
2625.0,0.81,0.25,9.65
2638.0,0.52,-0.2,9.5
2651.0,0.71,-0.6,9.58
2664.0,1.16,-0.95,9.9
2677.0,1.24,-1.67,10.89
2689.0,0.47,-2.67,11.51
2702.0,-0.92,-3.92,11.84
2715.0,-2.4,-4.96,11.8
2728.0,-3.08,-5.39,11.16
2741.0,-2.64,-5.18,10.12
2754.0,-1.15,-4.39,9.57
2767.0,0.1,-3.52,9.1
2780.0,0.74,-2.9,8.48
2792.0,0.68,-2.75,8.11
2805.0,0.27,-3.32,8.42
2818.0,-0.39,-4.04,8.84
2831.0,-0.79,-4.42,8.74
2844.0,-0.83,-4.46,8.35
2857.0,-0.83,-4.46,8.18
2870.0,-0.77,-4.61,8.41
2882.0,-0.67,-4.79,8.85
2895.0,-0.69,-4.91,8.99
2908.0,-0.89,-4.92,8.71
2921.0,-1.22,-4.97,8.48
2934.0,-1.49,-4.96,8.25
2947.0,-1.53,-4.78,7.79
2960.0,-1.21,-4.44,7.53
2973.0,-0.7,-4.23,7.41
2985.0,-0.12,-4.13,7.57
2998.0,0.56,-4.05,7.81
3011.0,1.08,-4.09,8.3
3024.0,1.38,-4.15,8.53
3037.0,1.48,-4.22,8.72
3050.0,1.06,-4.19,8.26
3063.0,0.2,-4.33,7.8
3075.0,-0.45,-4.48,7.69
3088.0,-0.39,-4.63,8.43
3101.0,0.25,-4.49,9.43
3114.0,0.54,-4.28,10.49
3127.0,0.35,-3.96,10.75
3140.0,0.2,-3.02,10.08
3153.0,0.1,-1.96,9.43
3166.0,0.13,-1.33,9.14
3178.0,0.25,-0.68,8.47
3191.0,0.46,-0.36,8.26
3204.0,0.88,-0.3,8.72
3217.0,1.63,-0.4,10.4
3230.0,1.96,-0.36,11.85
3243.0,2.21,-0.57,12.28
3256.0,2.14,0.1,11.71
3268.0,2.3,0.92,11.42
3281.0,2.36,1.47,11.94
3294.0,2.3,1.98,12.31
3307.0,1.95,2.36,12.57
3320.0,1.49,2.57,12.76
3333.0,0.95,2.67,12.55
3345.0,0.08,2.71,12.31
3358.0,-0.82,2.68,11.52
3371.0,-1.75,2.48,11.01
3384.0,-2.16,2.11,11.34
3397.0,-2.08,1.82,12.14
3410.0,-1.56,1.73,12.9
3423.0,-0.93,1.85,12.96
3435.0,-0.57,2.03,12.67
3448.0,-0.41,2.2,12.08
3461.0,-0.4,2.38,11.42
3474.0,-0.37,2.6,10.8
3487.0,-0.17,2.89,10.36
3500.0,-0.11,2.91,10.42
3513.0,-0.36,2.46,10.87
3525.0,-0.64,2.05,10.88
3538.0,-0.86,1.7,10.4
3551.0,-0.61,1.68,9.98
3564.0,0.23,1.93,10.01
3577.0,1.24,2.14,10.33
3590.0,1.93,2.15,10.67
3603.0,2.08,1.84,10.49
3615.0,2.1,1.19,10.51
3628.0,1.95,0.44,10.67
3641.0,1.74,-0.14,10.84
3654.0,1.82,-0.67,11.14
3667.0,1.71,-1.3,11.52
3680.0,1.13,-2.15,11.95
3692.0,0.15,-3.13,12.31
3705.0,-0.24,-3.63,11.61
3718.0,-0.31,-3.5,10.89
3731.0,-0.25,-3.49,10.72
3744.0,-0.25,-3.65,10.6
3757.0,-0.18,-3.61,9.66
3770.0,-0.3,-3.5,8.97
3783.0,-0.25,-3.12,8.2
3795.0,0.27,-2.54,7.54
3808.0,0.64,-2.06,7.79
3821.0,0.78,-2.41,7.98
3834.0,0.96,-3.28,8.33
3847.0,0.15,-4.86,9.88
3860.0,-0.76,-5.6,10.3
3873.0,-0.75,-5.43,9.03
3886.0,-0.62,-5.18,9.0
3898.0,-0.18,-5.32,9.31
3911.0,0.61,-5.87,9.44
3924.0,0.09,-6.01,10.31
3937.0,-0.07,-6.13,10.08
3950.0,-0.34,-6.21,9.9
3963.0,-0.43,-6.2,9.79
3976.0,-0.22,-5.79,9.34
3988.0,0.1,-5.32,8.86
4001.0,0.72,-4.66,8.51
4014.0,1.1,-4.22,8.27
4027.0,1.4,-3.96,7.97
4040.0,1.77,-3.61,7.65
4053.0,1.95,-3.48,7.64
4066.0,2.02,-3.79,8.31
4078.0,1.82,-4.1,8.91
4091.0,1.44,-4.27,9.05
4104.0,1.05,-4.14,8.78
4117.0,0.69,-3.82,8.28
4130.0,0.18,-3.43,7.73
4143.0,-0.01,-3.0,7.16
4156.0,0.18,-2.67,7.4
4169.0,0.59,-2.55,8.4
4181.0,0.88,-2.36,9.16
4194.0,0.69,-2.28,9.45
4207.0,0.26,-2.14,9.36
4220.0,0.2,-1.91,9.75
4233.0,0.41,-1.36,9.81
4246.0,0.67,-0.72,9.3
4259.0,0.79,0.03,8.66
4271.0,0.91,0.31,8.53
4284.0,0.97,0.28,9.27
4297.0,1.11,0.15,10.28
4310.0,1.22,0.21,10.84
4323.0,1.27,0.46,11.1
4336.0,1.4,0.8,11.17
4348.0,1.5,1.17,11.47
4361.0,1.35,1.77,11.62
4374.0,0.84,2.23,11.91
4387.0,0.28,2.35,12.61
4400.0,-0.36,2.36,13.15
4413.0,-0.68,2.34,13.7
4426.0,-0.87,2.29,14.28
4438.0,-1.1,2.25,14.51
4451.0,-1.37,2.29,14.37
4464.0,-1.58,2.51,13.95
4477.0,-1.74,2.63,13.55
4490.0,-1.65,2.77,13.11
4503.0,-1.53,2.79,12.65
4516.0,-1.57,2.67,12.03
4528.0,-1.62,2.6,11.51
4541.0,-1.51,2.69,11.07
4554.0,-1.13,2.62,11.14
4567.0,-0.82,2.31,11.58
4580.0,-0.57,1.85,12.2
4593.0,-0.46,1.55,12.41
4606.0,-0.17,1.61,11.95
4618.0,-0.2,1.63,11.02
4631.0,-0.25,1.48,10.32
4644.0,0.02,1.43,9.92
4657.0,0.63,1.57,9.68
4670.0,1.27,1.82,9.25
4683.0,2.15,2.05,9.11
4695.0,3.11,2.09,9.72
4708.0,3.44,1.83,10.0
4721.0,2.95,1.24,9.84
4734.0,2.07,0.19,9.59
4747.0,1.05,-0.89,9.61
4760.0,0.19,-1.83,9.61
4773.0,-0.16,-2.48,9.37
4785.0,-0.11,-2.57,8.62
4798.0,0.45,-2.64,8.4
4811.0,0.72,-2.93,8.47
4824.0,0.5,-3.59,8.99
4837.0,-0.01,-4.23,9.39
4850.0,-0.8,-4.73,9.23
4863.0,-1.65,-5.3,9.06
4875.0,-1.78,-5.5,8.51
4888.0,-0.97,-5.27,8.12
4901.0,0.15,-5.26,9.3
4914.0,0.76,-5.46,10.17
4927.0,0.24,-5.99,10.57
4940.0,-0.42,-6.58,10.6
4953.0,-0.73,-6.8,10.3
4966.0,-0.24,-6.44,10.04
4978.0,0.26,-6.24,10.31
4991.0,0.16,-6.23,9.04
5004.0,-0.27,-6.13,8.99
5017.0,-0.34,-6.18,9.62
5030.0,-0.41,-6.1,9.82
5043.0,-0.3,-5.78,9.9
5056.0,0.02,-5.16,9.25
5069.0,0.51,-4.43,8.39
5081.0,1.05,-4.01,8.26
5094.0,1.47,-4.06,9.5
5107.0,1.68,-4.34,10.81
5120.0,1.62,-4.42,10.68
5133.0,1.35,-4.07,9.37
5146.0,0.73,-3.9,8.62
5159.0,0.05,-4.0,8.84
5171.0,-0.37,-3.94,8.6
5184.0,-0.35,-3.59,8.15
5197.0,-0.18,-2.94,8.12
5210.0,0.12,-2.39,8.37
5223.0,0.45,-1.89,8.43
5236.0,0.61,-1.21,8.09
5249.0,0.55,-0.78,8.05
5261.0,0.46,-0.55,8.19
5274.0,0.37,-0.35,7.96
5287.0,0.24,-0.15,7.76
5300.0,0.27,-0.19,8.31
5313.0,0.52,0.08,8.44
5326.0,1.23,0.57,8.85
5339.0,2.02,1.07,9.62
5351.0,2.51,1.58,9.89
5364.0,2.48,1.86,10.11
5377.0,1.79,1.75,10.58
5390.0,0.68,1.56,10.54
5403.0,-0.23,1.74,10.05
5416.0,-0.54,2.3,9.54
5428.0,0.08,2.87,10.23
5441.0,0.95,3.25,11.67
5454.0,1.59,3.38,12.81
5467.0,2.11,3.32,13.98
5480.0,2.29,3.41,14.33
5493.0,2.04,3.19,14.5
5506.0,1.45,2.73,14.56
5518.0,0.77,2.23,14.52
5531.0,0.3,1.92,14.19
5544.0,0.11,1.98,13.54
5557.0,0.13,2.25,12.96
5570.0,0.32,2.62,12.2
5583.0,0.6,2.99,11.39
5595.0,0.84,3.16,11.23
5608.0,0.84,2.94,11.42
5621.0,0.56,2.6,11.47
5634.0,-0.02,2.23,10.94
5647.0,-0.52,2.06,10.2
5660.0,-0.32,2.03,9.64
5673.0,0.59,2.23,9.65
5685.0,1.52,2.53,9.93
5698.0,2.03,2.81,9.55
5711.0,2.2,2.93,8.8
5724.0,2.26,2.69,8.68
5737.0,2.23,2.18,9.17
5750.0,2.09,1.56,9.67
5762.0,1.69,0.85,9.9
5775.0,1.29,0.06,10.2
5788.0,0.63,-0.98,10.33
5801.0,-0.09,-1.87,10.29
5814.0,-0.49,-2.41,9.82
5827.0,-0.37,-2.54,9.47
5840.0,0.2,-2.44,9.46
5852.0,0.43,-2.5,9.19
5865.0,0.5,-2.96,9.3
5878.0,0.29,-3.51,9.7
5891.0,0.97,-3.79,9.55
5904.0,1.14,-3.67,9.32
5917.0,0.9,-3.65,9.13
5930.0,0.55,-3.8,9.01
5942.0,0.33,-4.03,9.11
5955.0,-0.02,-4.62,9.54
5968.0,-0.68,-5.6,10.22
5981.0,-1.69,-6.34,10.24
5994.0,-1.93,-6.62,10.23
6007.0,-1.2,-6.19,10.07
6020.0,-0.27,-5.56,9.76
6033.0,0.27,-5.16,9.38
6045.0,0.12,-5.09,9.11
6058.0,-0.26,-5.18,8.88
6071.0,-0.82,-5.2,8.88
6084.0,-1.16,-5.13,8.73
6097.0,-1.17,-4.89,8.73
6110.0,-0.77,-4.66,8.88
6123.0,-0.04,-4.43,9.09
6136.0,0.77,-4.18,9.35
6148.0,1.22,-4.21,9.81
6161.0,1.25,-4.33,10.01
6174.0,1.05,-4.14,9.28
6187.0,0.73,-3.75,8.4
6200.0,0.56,-3.58,8.42
6213.0,0.52,-3.39,8.43
6226.0,0.82,-3.08,8.56
6238.0,1.05,-2.72,8.95
6251.0,1.05,-2.27,8.88
6264.0,1.1,-1.67,8.21
6277.0,1.35,-1.02,8.1
6290.0,1.44,-0.59,8.56
6303.0,1.03,-0.7,9.17
6316.0,0.47,-0.81,9.4
6328.0,-0.2,-0.8,9.44
6341.0,-0.89,-0.97,9.68
6354.0,-1.63,-1.33,9.69
6367.0,-1.58,-1.4,10.13
6380.0,-0.33,-0.9,11.33
6393.0,1.21,-0.03,11.84
6406.0,2.39,0.88,12.12
6418.0,3.26,1.75,12.39
6431.0,3.49,2.44,12.16
6444.0,3.4,2.92,11.89
6457.0,2.9,3.31,11.38
6470.0,2.18,3.81,10.65
6483.0,1.33,4.27,9.9
6496.0,0.57,4.64,9.53
6508.0,0.19,4.5,10.02
6521.0,-0.01,3.82,11.27
6534.0,0.04,3.02,12.64
6547.0,0.11,2.51,13.3
6560.0,0.07,2.08,13.43
6573.0,0.24,1.85,13.69
6585.0,0.68,1.89,13.69
6598.0,0.96,2.23,13.01
6611.0,1.17,2.84,11.92
6624.0,0.92,3.28,10.92
6637.0,0.44,3.01,11.0
6650.0,-0.2,2.18,11.87
6662.0,-0.67,1.25,12.62
6675.0,-0.99,0.54,12.93
6688.0,-1.3,0.07,12.87
6701.0,-1.39,-0.17,12.23
6714.0,-1.26,0.05,10.86
6727.0,-0.59,0.72,9.41
6740.0,0.29,1.35,8.45
6753.0,1.03,1.48,8.33
6765.0,1.56,1.2,8.85
6778.0,2.01,0.73,9.7
6791.0,1.85,-0.07,10.25
6804.0,1.29,-0.79,9.9
6817.0,0.86,-1.16,9.25
6830.0,0.38,-1.42,8.78
6842.0,0.48,-1.59,8.34
6855.0,0.62,-1.69,8.37
6868.0,0.42,-2.26,8.94
6881.0,0.36,-2.71,9.67
6894.0,0.49,-2.66,9.44
6907.0,0.3,-2.77,9.46
6920.0,0.04,-3.1,9.17
6932.0,-0.23,-3.71,9.32
6945.0,-0.33,-4.46,10.09
6958.0,-0.35,-4.92,10.2
6971.0,-0.2,-4.95,9.78
6984.0,-0.09,-4.88,9.19
6997.0,-0.07,-5.01,9.14
7010.0,-0.38,-5.31,9.17
7023.0,-1.01,-6.03,9.85
7035.0,-1.48,-6.56,10.39
7048.0,-1.7,-6.76,10.36
7061.0,-1.62,-6.65,9.91
7074.0,-1.45,-6.37,9.46
7087.0,-1.2,-5.96,8.95
7100.0,-1.19,-5.53,8.28
7113.0,-1.12,-5.22,7.96
7126.0,-0.9,-5.02,8.22
7138.0,-0.51,-4.85,8.5
7151.0,-0.06,-4.65,8.49
7164.0,0.62,-4.52,8.89
7177.0,1.39,-4.36,9.43
7190.0,1.77,-4.08,9.62
7203.0,1.66,-4.02,9.74
7216.0,1.16,-3.68,8.81
7229.0,-0.1,-3.79,8.58
7241.0,-1.0,-3.77,7.63
7254.0,-1.51,-3.39,5.83
7267.0,-0.84,-3.16,5.98
7280.0,1.09,-3.05,8.42
7293.0,2.75,-2.84,10.59
7306.0,3.56,-2.68,12.29
7319.0,3.58,-2.26,12.13
7331.0,3.17,-1.13,10.74
7344.0,2.94,0.18,9.27
7357.0,2.57,1.23,8.48
7370.0,2.14,1.91,8.35
7383.0,1.36,2.2,8.66
7396.0,0.42,2.22,8.65
7409.0,-0.04,2.18,8.98
7421.0,-0.57,1.76,10.1
7434.0,-0.97,1.29,10.9
7447.0,-1.03,1.17,11.49
7460.0,-0.34,1.43,12.47
7473.0,0.36,1.97,13.34
7486.0,0.96,2.56,13.87
7498.0,1.36,3.14,13.87
7511.0,1.55,3.58,13.55
7524.0,1.44,3.43,14.07
7537.0,1.21,2.84,14.86
7550.0,0.93,2.51,14.91
7563.0,0.67,2.47,14.34
7576.0,0.49,2.53,13.34
7588.0,0.42,2.43,12.57
7601.0,0.66,2.43,12.25
7614.0,1.29,2.66,12.27
7627.0,1.8,2.83,12.28
7640.0,1.95,2.81,12.16
7653.0,1.71,2.48,11.74
7665.0,1.07,1.86,11.21
7678.0,0.28,1.21,10.58
7691.0,-0.1,0.88,9.88
7704.0,0.06,1.0,9.01
7717.0,0.93,1.05,9.27
7730.0,2.04,1.4,9.43
7742.0,2.95,1.74,9.8
7755.0,3.07,1.64,9.93
7768.0,2.37,1.14,9.23
7781.0,1.84,0.62,8.73
7794.0,1.65,0.09,9.16
7807.0,1.62,-0.38,9.39
7820.0,1.67,-0.6,9.05
7832.0,1.67,-0.83,8.56
7845.0,1.37,-1.54,8.8
7858.0,1.17,-2.3,9.66
7871.0,1.02,-2.98,10.37
7884.0,0.79,-3.54,10.79
7897.0,0.43,-4.22,11.04
7910.0,0.11,-4.67,10.56
7922.0,-0.1,-5.0,10.21
7935.0,-0.18,-5.1,9.8
7948.0,-0.22,-5.02,9.17
7961.0,-0.5,-5.26,9.1
7974.0,-0.72,-5.59,9.22
7987.0,-0.93,-5.8,9.13
8000.0,-0.98,-6.07,9.17
8013.0,-0.84,-6.29,9.47
8025.0,-0.79,-6.64,10.21
8038.0,-0.23,-6.57,10.58
8051.0,0.04,-6.39,10.58
8064.0,-0.22,-6.23,9.96
8077.0,-0.62,-6.05,9.09
8090.0,-0.72,-5.68,8.19
8103.0,-0.56,-5.27,7.79
8116.0,-0.17,-4.96,8.05
8128.0,0.2,-4.68,8.21
8141.0,0.55,-4.38,8.09
8154.0,0.79,-4.09,8.0
8167.0,1.08,-3.77,7.66
8180.0,1.15,-3.51,7.39
8193.0,1.35,-3.34,7.49
8206.0,1.5,-3.2,7.59
8218.0,1.66,-2.92,7.44
8231.0,1.46,-2.85,7.95
8244.0,1.09,-2.81,8.32
8257.0,0.79,-2.51,8.21
8270.0,0.33,-2.26,8.12
8283.0,-0.11,-2.18,8.1
8296.0,-0.17,-1.94,8.11
8308.0,0.06,-1.9,8.81
8321.0,0.84,-1.61,9.5
8334.0,1.64,-1.2,10.52
8347.0,2.49,-0.79,11.44
8360.0,3.23,-0.03,11.37
8373.0,3.46,0.61,11.62
8386.0,2.94,0.91,11.67
8398.0,2.28,1.31,11.07
8411.0,1.56,1.7,10.57
8424.0,0.93,1.95,10.35
8437.0,0.47,2.22,10.36
8450.0,0.17,2.5,10.46
8463.0,-0.27,2.62,10.71
8475.0,-0.61,2.8,10.87
8488.0,-0.85,2.83,11.31
8501.0,-1.29,2.97,11.71
8514.0,-1.25,3.05,12.14
8527.0,-1.14,2.8,12.97
8540.0,-0.74,2.64,13.51
8553.0,-0.21,2.73,13.63
8565.0,0.38,2.8,13.7
8578.0,0.97,2.7,14.14
8591.0,1.37,2.52,14.21
8604.0,1.38,2.32,14.0
8617.0,0.98,1.98,13.68
8630.0,0.45,1.53,13.39
8643.0,0.05,1.18,13.08
8655.0,-0.14,0.96,12.54
8668.0,-0.18,1.04,11.63
8681.0,-0.1,1.36,10.45
8694.0,0.28,1.72,9.57
8707.0,0.67,1.76,9.43
8720.0,1.19,1.65,9.42
8732.0,1.52,1.28,9.81
8745.0,1.47,0.96,9.65
8758.0,1.09,0.62,9.19
8771.0,0.91,0.18,9.0
8784.0,0.8,-0.28,9.08
8797.0,0.71,-0.88,9.27
8810.0,0.58,-1.64,9.7
8822.0,0.39,-2.44,10.5
8835.0,0.24,-3.03,10.64
8848.0,0.07,-3.49,10.63
8861.0,-0.11,-3.78,9.98
8874.0,-0.22,-4.02,9.54
8887.0,-0.23,-4.27,9.51
8900.0,0.18,-4.5,9.95
8912.0,0.6,-4.7,10.44
8925.0,0.52,-5.17,11.17
8938.0,-0.19,-5.59,11.19
8951.0,-0.61,-5.72,10.59
8964.0,-0.54,-5.34,9.73
8977.0,0.58,-4.41,8.16
8990.0,1.9,-3.01,6.19
9003.0,2.46,-2.46,5.61
9015.0,2.13,-2.97,6.56
9028.0,0.77,-4.36,7.95
9041.0,-0.8,-5.96,9.07
9054.0,-2.16,-7.33,10.31
9067.0,-3.19,-8.21,10.67
9080.0,-3.27,-8.17,10.59
9093.0,-2.93,-7.85,9.91
9105.0,-2.26,-7.24,9.36
9118.0,-1.52,-6.64,8.89
9131.0,-0.72,-6.25,9.17
9144.0,0.08,-5.83,9.64
9157.0,0.68,-5.35,9.34
9170.0,1.19,-4.77,8.61
9183.0,1.39,-4.4,8.6
9196.0,1.31,-4.25,8.35
9208.0,0.66,-3.98,7.45
9221.0,0.4,-4.33,7.98
9234.0,0.51,-4.67,9.36
9247.0,0.5,-5.13,11.11
9260.0,0.65,-4.95,11.58
9273.0,0.69,-4.14,11.09
9286.0,0.83,-3.12,9.98
9298.0,1.17,-1.71,8.16
9311.0,1.5,-0.38,7.02
9324.0,1.58,0.36,6.79
9337.0,1.47,0.79,6.52
9350.0,1.38,0.97,6.89
9363.0,1.23,0.73,8.08
9375.0,0.79,0.35,9.29
9388.0,0.18,0.11,9.65
9401.0,-0.49,0.02,9.89
9414.0,-0.51,0.49,9.07
9427.0,-0.03,1.27,8.66
9440.0,0.64,1.8,9.12
9453.0,1.15,2.02,10.17
9465.0,1.44,2.18,10.9
9478.0,1.29,2.42,10.76
9491.0,1.32,2.77,10.85
9504.0,1.57,2.99,11.39
9517.0,1.66,2.7,13.32
9530.0,1.37,2.16,14.91
9542.0,0.73,1.95,14.58
9555.0,-0.0,2.45,12.98
9568.0,-0.36,3.11,11.99
9581.0,-0.45,3.45,11.94
9594.0,-0.47,3.44,12.39
9607.0,-0.69,3.43,12.27
9620.0,-0.92,3.23,12.35
9632.0,-1.13,2.72,12.64
9645.0,-1.34,2.29,12.6
9658.0,-1.49,1.99,12.21
9671.0,-1.39,1.74,11.81
9684.0,-1.09,1.41,11.59
9697.0,-0.68,1.39,10.83
9710.0,-0.01,1.75,10.08
9722.0,0.91,1.92,10.11
9735.0,1.08,1.58,10.64
9748.0,0.85,0.92,11.06
9761.0,0.39,0.35,10.72
9774.0,0.3,-0.04,10.37
9787.0,0.98,-0.24,10.09
9800.0,1.69,-0.28,10.05
9812.0,1.89,-0.55,10.0
9825.0,1.41,-0.91,9.64
9838.0,0.77,-1.35,9.0
9851.0,0.22,-2.0,8.79
9864.0,0.43,-2.47,8.85
9877.0,1.09,-2.63,8.67
9890.0,1.56,-2.97,8.84
9902.0,1.5,-3.65,9.56
9915.0,0.99,-4.8,10.47
9928.0,0.05,-5.84,11.12
9941.0,-0.92,-6.27,10.46
9954.0,-1.31,-6.2,9.48
9967.0,-0.26,-5.8,9.2
9980.0,1.05,-5.21,9.37
9992.0,1.99,-4.86,9.6
10005.0,1.75,-5.14,9.74
10018.0,0.56,-5.85,9.47
10031.0,-0.53,-6.48,9.39
10044.0,-1.18,-6.77,9.28
10057.0,-1.1,-6.93,9.55
10070.0,-0.75,-6.82,9.7
10083.0,-0.34,-6.5,9.43
10095.0,-0.14,-6.29,9.22
10108.0,-0.3,-6.22,8.97
10121.0,-0.64,-6.11,8.74
10134.0,-0.63,-5.76,8.43
10147.0,-0.16,-5.28,7.98
10160.0,0.6,-4.71,7.6
10173.0,1.22,-4.38,7.86
10185.0,1.64,-4.26,8.35
10198.0,1.46,-4.37,8.97
10211.0,0.63,-4.49,8.77
10224.0,-0.3,-4.48,8.2
10237.0,-1.01,-4.45,7.61
10250.0,-0.86,-4.23,7.72
10263.0,-0.03,-3.95,8.7
10276.0,1.16,-3.56,10.1
10288.0,1.57,-3.14,10.89
10301.0,1.43,-2.73,10.23
10314.0,0.88,-2.23,9.14
10327.0,0.25,-1.72,8.21
10340.0,-0.0,-1.21,7.88
10353.0,-0.13,-0.86,7.72
10366.0,-0.36,-0.76,8.01
10378.0,0.04,-0.5,8.84
10391.0,0.71,-0.13,9.79
10404.0,1.05,0.27,10.24
10417.0,0.87,0.56,10.43
10430.0,0.79,0.86,10.71
10443.0,0.74,1.08,11.26
10456.0,0.5,1.19,11.97
10468.0,0.06,1.55,12.0
10481.0,-0.52,2.28,11.16
10494.0,-1.01,2.67,10.83
10507.0,-1.01,2.92,11.0
10520.0,-0.53,2.88,12.2
10533.0,-0.08,2.78,13.35
10546.0,0.07,2.72,13.64
10558.0,0.23,2.57,13.93
10571.0,0.33,2.38,14.03
10584.0,0.47,2.11,14.2
10597.0,0.57,1.75,14.42
10610.0,0.49,1.53,14.16
10623.0,0.31,1.61,13.09
10635.0,0.03,1.92,11.87
10648.0,-0.1,2.22,10.8
10661.0,0.1,2.4,10.42
10674.0,0.35,2.31,10.66
10687.0,0.59,2.04,11.01
10700.0,0.42,1.86,10.61
10712.0,0.17,1.67,10.03
10725.0,0.16,1.49,9.59
10738.0,0.46,1.4,9.31
10751.0,0.9,1.34,9.63
10764.0,1.21,1.27,10.06
10777.0,1.16,1.17,9.53
10790.0,1.04,0.96,9.34
10802.0,1.06,0.75,9.37
10815.0,1.22,0.51,9.46
10828.0,1.36,0.25,9.43
10841.0,1.49,0.21,8.85
10854.0,1.61,0.1,8.26
10867.0,1.45,-0.19,7.75
10879.0,1.18,-0.58,7.47
10892.0,0.9,-1.31,7.55
10905.0,0.67,-2.15,7.7
10918.0,0.53,-2.99,8.0
10931.0,0.22,-4.1,9.18
10944.0,-0.4,-4.99,9.8
10957.0,-0.97,-5.43,9.47
10970.0,-0.99,-5.34,8.35
10982.0,-0.26,-5.32,7.82
10995.0,0.31,-5.63,8.52
11008.0,0.23,-6.58,9.74
11021.0,-0.36,-7.54,10.61
11034.0,-1.08,-8.42,11.23
11047.0,-1.48,-8.98,11.76
11060.0,-1.66,-9.01,11.85
11072.0,-0.71,-8.28,11.11
11085.0,0.02,-7.46,10.01
11098.0,0.13,-7.26,10.11
11111.0,-0.27,-7.27,9.99
11124.0,-0.85,-7.18,9.51
11137.0,-1.23,-7.02,9.22
11150.0,-1.22,-6.6,8.71
11163.0,-0.75,-5.81,7.91
11175.0,0.02,-5.05,7.22
11188.0,0.63,-4.97,8.21
11201.0,0.98,-5.46,10.14
11214.0,0.99,-5.8,11.07
11227.0,0.58,-5.71,10.2
11240.0,-0.09,-5.52,9.05
11253.0,-0.72,-5.3,8.32
11265.0,-1.07,-4.92,7.88
11278.0,-0.93,-4.51,7.75
11291.0,-0.42,-3.99,8.14
11304.0,0.37,-3.24,8.12
11317.0,0.78,-2.68,8.13
11330.0,1.07,-2.21,8.11
11343.0,1.27,-1.43,7.29
11356.0,1.37,-0.86,7.05
11368.0,1.1,-0.68,7.86
11381.0,0.43,-0.83,8.61
11394.0,-0.52,-0.81,8.6
11407.0,-0.95,-0.42,8.02
11420.0,-0.82,0.01,7.91
11433.0,-0.38,0.38,8.3
11446.0,0.1,0.55,9.48
11458.0,0.43,0.54,10.56
11471.0,0.51,0.7,11.18
11484.0,0.98,1.3,11.53
11497.0,1.49,2.12,11.68
11510.0,2.0,2.84,11.98
11523.0,1.83,3.45,12.3
11535.0,1.05,3.42,12.91
11548.0,-0.12,2.99,13.84
11561.0,-0.82,2.43,14.89
11574.0,-1.01,2.46,15.05
11587.0,-1.1,2.58,15.02
11600.0,-1.08,2.67,14.66
11613.0,-0.93,2.63,14.25
11625.0,-0.65,2.52,13.91
11638.0,-0.47,2.4,13.41
11651.0,-0.3,2.41,12.76
11664.0,-0.21,2.59,11.86
11677.0,-0.15,2.77,11.02
11690.0,-0.05,2.71,10.69
11703.0,0.03,2.24,10.94
11715.0,-0.07,1.7,11.02
11728.0,-0.23,1.43,10.41
11741.0,-0.27,1.59,9.19
11754.0,0.14,1.74,8.78
11767.0,0.82,1.98,8.58
11780.0,1.4,2.17,8.66
11793.0,1.78,1.98,9.39
11805.0,1.84,1.72,9.41
11818.0,1.46,1.37,9.09
11831.0,1.03,0.93,8.83
11844.0,0.98,0.5,8.75
11857.0,0.88,0.04,8.92
11870.0,0.96,-0.62,9.65
11882.0,0.75,-1.33,10.35
11895.0,0.24,-2.27,10.94
11908.0,-0.48,-3.03,10.92
11921.0,-1.07,-3.75,10.55
11934.0,-1.43,-4.27,10.09
11947.0,-1.58,-4.49,9.51
11960.0,-1.4,-4.32,8.58
11973.0,-0.73,-3.79,7.78
11985.0,0.19,-3.37,7.64
11998.0,0.66,-3.47,8.09
12011.0,0.59,-3.79,8.25
12024.0,0.06,-4.28,8.06
12037.0,-0.36,-4.86,8.45
12050.0,-0.49,-5.23,8.87
12063.0,-0.2,-5.28,8.98
12075.0,-0.08,-5.48,9.19
12088.0,-0.03,-5.91,9.73
12101.0,0.25,-6.25,10.39
12114.0,0.45,-6.43,10.58
12127.0,0.33,-6.47,10.16
12140.0,-0.04,-6.53,9.71
12153.0,-0.42,-6.55,9.51
12166.0,-0.83,-6.46,9.38
12178.0,-0.77,-6.17,9.17
12191.0,-0.23,-5.62,8.78
12204.0,0.66,-5.06,8.71
12217.0,1.26,-4.92,8.97
12230.0,1.4,-5.05,9.49
12243.0,0.99,-5.36,9.94
12256.0,0.04,-5.53,9.46
12268.0,-0.74,-5.34,8.48
12281.0,-1.0,-5.19,8.22
12294.0,-0.81,-4.9,8.51
12307.0,-0.48,-4.45,8.66
12320.0,0.1,-3.7,8.25
12333.0,0.54,-3.09,8.55
12346.0,0.88,-2.59,9.07
12359.0,0.6,-1.84,8.56
12371.0,0.27,-1.33,8.5
12384.0,-0.2,-1.01,8.48
12397.0,-0.78,-0.74,8.27
12410.0,-1.17,-0.78,8.85
12423.0,-1.16,-0.79,9.75
12436.0,-0.75,-0.78,10.83
12449.0,-0.32,-0.66,11.5
12461.0,0.01,-0.11,11.17
12474.0,0.42,0.62,10.83
12487.0,0.95,1.37,11.01
12500.0,1.36,2.1,11.0
12513.0,1.56,2.71,10.75
12526.0,1.56,3.13,10.67
12539.0,1.42,3.2,11.14
12551.0,1.22,3.23,11.29
12564.0,1.25,3.28,11.4
12577.0,1.1,3.06,11.76
12590.0,0.87,2.49,12.96
12603.0,0.69,2.11,13.56
12616.0,0.47,1.75,14.14
12628.0,0.32,1.62,14.25
12641.0,0.31,1.7,13.82
12654.0,0.5,1.69,13.63
12667.0,0.64,1.73,13.3
12680.0,0.72,1.88,12.87
12693.0,0.76,2.13,12.15
12706.0,0.79,2.36,11.45
12718.0,0.7,2.37,11.38
12731.0,0.35,2.18,11.51
12744.0,-0.03,1.98,11.66
12757.0,-0.32,1.81,11.39
12770.0,-0.26,1.91,10.65
12783.0,0.13,2.23,9.83
12795.0,0.79,2.67,9.44
12808.0,1.61,2.99,9.25
12821.0,1.96,2.97,9.17
12834.0,1.87,2.52,9.3
12847.0,1.58,1.78,9.41
