timestamp,accX,accY,accZ
2.0,-0.17,3.7,9.17
15.0,-0.31,2.74,7.52
28.0,-0.44,2.95,8.94
41.0,-0.27,2.64,9.78
54.0,-0.13,2.08,10.88
66.0,-0.14,1.7,11.22
79.0,-0.22,1.62,10.81
92.0,-0.11,1.74,10.35
105.0,0.1,1.77,10.18
118.0,0.24,1.75,10.41
131.0,0.08,1.5,10.53
144.0,-0.37,0.93,10.71
156.0,-0.42,0.05,11.46
169.0,-0.61,-0.64,12.33
182.0,-1.06,-0.95,11.69
195.0,-1.53,-0.95,10.25
208.0,-1.36,-0.61,9.1
221.0,-0.83,-0.24,8.9
234.0,0.0,-0.1,9.25
247.0,0.8,-0.21,9.94
259.0,1.11,-0.36,9.95
272.0,1.0,-0.51,9.74
285.0,0.59,-0.86,9.47
298.0,0.22,-1.04,9.07
311.0,-0.03,-1.15,8.97
324.0,-0.08,-1.27,8.92
337.0,-0.0,-1.35,9.21
349.0,0.07,-1.47,9.28
362.0,0.17,-1.67,9.25
375.0,-0.02,-1.95,9.28
388.0,-0.32,-2.45,9.6
401.0,-0.66,-2.94,9.95
414.0,-0.44,-3.19,10.25
427.0,-0.14,-3.5,10.84
440.0,0.13,-3.71,11.18
452.0,0.2,-3.68,10.96
465.0,-0.16,-3.85,10.82
478.0,-0.65,-3.94,10.49
491.0,-0.96,-3.8,10.04
504.0,-1.08,-3.59,9.78
517.0,-0.88,-3.46,9.98
530.0,-0.6,-3.18,10.23
543.0,-0.4,-2.83,10.04
555.0,-0.38,-2.54,9.7
568.0,-0.42,-2.35,9.41
581.0,-0.38,-2.19,9.17
594.0,-0.31,-2.01,9.08
607.0,-0.46,-1.95,8.87
620.0,-0.71,-1.98,8.72
633.0,-1.32,-2.32,8.94
646.0,-1.38,-2.57,9.15
658.0,-1.0,-2.52,9.48
671.0,-0.43,-2.26,9.59
684.0,-0.02,-1.96,9.69
697.0,0.18,-1.7,9.85
710.0,-0.34,-1.53,9.58
723.0,-1.1,-1.5,9.2
736.0,-1.61,-1.24,8.72
748.0,-1.81,-0.71,8.49
761.0,-1.37,-0.23,9.09
774.0,-0.66,0.46,9.65
787.0,-0.1,1.06,9.97
800.0,0.31,1.41,10.31
813.0,0.36,1.7,10.3
826.0,0.29,1.98,10.33
838.0,0.28,2.34,10.18
851.0,-0.17,2.49,10.19
864.0,-0.97,2.27,10.26
877.0,-1.79,2.11,10.1
890.0,-2.19,2.15,10.18
903.0,-2.2,2.33,10.43
916.0,-1.8,2.6,10.78
928.0,-1.2,2.92,11.12
941.0,-0.69,3.18,11.19
954.0,-0.35,3.42,11.08
967.0,-0.15,3.51,11.26
980.0,-0.18,3.31,11.77
993.0,-0.44,3.06,12.06
1006.0,-0.61,2.98,11.8
1018.0,-0.56,3.01,11.5
1031.0,-0.33,3.09,11.14
1044.0,-0.11,3.13,10.92
1057.0,-0.03,3.11,10.78
1070.0,-0.11,2.91,10.89
1083.0,-0.41,2.48,11.13
1096.0,-0.74,2.01,11.27
1108.0,-1.13,1.66,10.97
1121.0,-1.39,1.47,10.35
1134.0,-1.27,1.75,9.65
1147.0,-0.65,2.17,9.36
1160.0,0.26,2.25,9.96
1173.0,0.74,1.92,11.09
1186.0,0.68,1.19,11.78
1198.0,0.16,0.55,11.61
1211.0,-0.42,0.19,10.83
1224.0,-0.36,0.38,9.69
1237.0,0.18,0.65,9.24
1250.0,1.04,0.73,9.74
1263.0,1.39,0.43,10.68
1276.0,0.6,-0.2,10.7
1288.0,-0.59,-0.78,9.97
1301.0,-1.6,-1.1,9.17
1314.0,-1.99,-1.16,8.39
1327.0,-1.16,-0.77,7.7
1340.0,0.02,-0.58,8.26
1353.0,0.83,-0.93,9.32
1366.0,0.61,-1.61,10.19
1378.0,-0.41,-2.42,10.34
1391.0,-1.57,-3.13,10.12
1404.0,-2.26,-3.42,9.37
1417.0,-2.12,-3.29,8.8
1430.0,-1.33,-3.05,8.83
1443.0,-0.27,-2.95,9.34
1456.0,0.34,-2.82,9.63
1469.0,0.34,-3.04,9.77
1481.0,-0.09,-3.53,10.14
1494.0,-0.7,-4.0,10.53
1507.0,-1.03,-4.34,10.64
1520.0,-1.2,-4.33,10.55
1533.0,-1.12,-4.13,10.23
1546.0,-0.98,-3.79,9.81
1559.0,-0.78,-3.3,9.26
1572.0,-0.62,-2.88,8.95
1584.0,-0.47,-2.62,8.81
1597.0,-0.39,-2.44,8.87
1610.0,-0.4,-2.46,9.23
1623.0,-0.59,-2.62,9.58
1636.0,-0.59,-2.6,9.51
1649.0,-0.31,-2.42,9.42
1662.0,0.18,-2.25,9.51
1675.0,0.56,-2.18,9.85
1687.0,0.35,-2.17,10.1
1700.0,-0.06,-2.61,10.29
1713.0,-0.72,-2.9,10.42
1726.0,-0.75,-2.6,9.95
1739.0,-0.56,-2.01,9.47
1752.0,-0.21,-1.46,9.24
1765.0,0.09,-1.0,9.35
1777.0,-0.15,-0.79,9.47
1790.0,-0.78,-0.71,9.28
1803.0,-1.24,-0.5,8.93
1816.0,-1.05,-0.35,9.51
1829.0,-0.55,-0.2,10.25
1842.0,-0.31,0.05,10.78
1855.0,-0.23,0.27,10.83
1868.0,-0.1,0.68,10.5
1880.0,0.01,1.17,9.99
1893.0,-0.06,1.56,9.67
1906.0,-0.2,1.68,10.11
1919.0,-0.41,1.8,10.27
1932.0,-0.8,1.9,10.48
1945.0,-0.86,2.01,10.87
1958.0,-0.52,2.27,11.23
1970.0,0.0,2.8,11.38
1983.0,0.28,3.25,11.45
1996.0,0.28,3.5,11.57
2009.0,-0.04,3.64,11.41
2022.0,-0.69,3.84,11.06
2035.0,-1.48,3.73,10.94
2047.0,-1.92,3.47,11.31
2060.0,-2.04,3.34,11.77
2073.0,-2.09,3.39,11.59
2086.0,-2.25,3.26,11.37
2099.0,-2.4,3.12,10.85
2112.0,-2.41,3.11,9.96
2125.0,-2.18,3.4,9.51
2138.0,-1.69,3.72,9.11
2150.0,-1.17,3.96,8.87
2163.0,-0.78,3.91,9.11
2176.0,-0.67,3.59,9.44
2189.0,-0.78,3.43,9.41
2202.0,-0.99,3.28,9.39
2215.0,-1.26,2.94,9.45
2228.0,-1.45,2.54,9.35
2240.0,-1.11,2.35,9.41
2253.0,-0.59,2.38,9.46
2266.0,-0.44,2.37,9.53
2279.0,-0.63,1.87,9.59
2292.0,-1.01,1.01,10.07
2305.0,-1.4,0.02,10.82
2318.0,-1.76,-0.83,11.24
2330.0,-2.1,-1.34,11.1
2343.0,-1.96,-1.53,10.4
2356.0,-1.13,-1.02,9.45
2369.0,-0.3,-0.65,9.29
2382.0,0.39,-0.47,9.35
2395.0,-0.04,-0.4,8.89
2408.0,-0.91,-0.61,8.49
2420.0,-1.29,-1.01,8.34
2433.0,-1.32,-1.55,8.63
2446.0,-1.51,-2.15,9.54
2459.0,-2.01,-2.8,10.04
2472.0,-2.27,-3.47,10.37
2485.0,-1.93,-3.81,10.68
2498.0,-1.38,-3.77,10.57
2511.0,-0.7,-3.3,10.17
2523.0,0.11,-2.71,9.7
2536.0,0.72,-2.29,9.5
2549.0,0.98,-2.37,9.67
2562.0,0.68,-2.71,10.05
2575.0,0.12,-3.19,10.28
2588.0,-0.42,-3.54,10.23
2601.0,-0.74,-3.56,9.95
2614.0,-0.76,-3.34,9.59
2626.0,-0.6,-3.06,9.39
2639.0,-0.55,-2.94,9.36
2652.0,-0.72,-2.98,9.41
2665.0,-0.87,-2.97,9.34
2678.0,-0.91,-2.91,9.43
2691.0,-0.76,-2.79,9.59
2704.0,-0.44,-2.64,9.69
2717.0,-0.18,-2.46,9.67
2729.0,0.0,-2.29,9.52
2742.0,0.08,-2.04,9.11
2755.0,-0.01,-1.87,8.79
2768.0,-0.28,-1.81,8.73
2781.0,-0.67,-2.29,9.51
2794.0,-1.09,-2.85,10.24
2807.0,-1.24,-2.72,9.74
2819.0,-0.98,-1.96,8.58
2832.0,-0.47,-0.8,7.36
2845.0,-0.25,0.12,6.92
2858.0,-0.18,-0.05,7.74
2871.0,-0.1,-0.42,9.02
2884.0,-0.04,-0.74,9.91
2897.0,-0.18,-1.0,10.76
2910.0,-0.26,-1.12,11.27
2922.0,-0.51,-0.93,11.11
2935.0,-0.76,-0.39,10.35
2948.0,-0.84,0.23,10.01
2961.0,-0.85,0.62,10.21
2974.0,-0.92,0.8,10.4
2987.0,-0.7,0.86,10.9
3000.0,-0.23,1.1,11.42
3013.0,0.17,1.3,11.71
3025.0,0.35,1.58,11.56
3038.0,0.15,1.87,10.82
3051.0,0.09,2.12,10.56
3064.0,0.3,2.23,11.17
3077.0,0.5,2.28,11.74
3090.0,0.5,2.35,12.06
3102.0,0.68,2.5,12.2
3115.0,0.84,2.69,12.28
3128.0,0.86,2.77,12.28
3141.0,0.74,2.65,12.54
3154.0,0.38,2.37,12.86
3167.0,-0.37,2.05,12.67
3179.0,-0.86,2.0,11.99
3192.0,-1.06,2.25,11.19
3205.0,-0.98,2.52,10.59
3218.0,-0.81,2.6,10.33
3231.0,-0.72,2.65,10.29
3244.0,-0.68,2.57,10.34
3257.0,-0.9,2.18,10.57
3269.0,-1.13,1.73,10.7
3282.0,-1.33,1.45,10.44
3295.0,-1.01,1.56,10.08
3308.0,-0.34,1.94,9.64
3321.0,0.25,2.3,9.39
3334.0,0.71,2.49,9.41
3347.0,0.7,2.3,9.65
3359.0,0.37,1.97,9.48
3372.0,0.11,1.61,9.29
3385.0,0.33,1.31,9.27
3398.0,0.93,1.04,9.78
3411.0,1.46,0.62,10.8
3424.0,1.76,0.2,11.28
3436.0,1.86,0.01,10.98
3449.0,1.93,0.08,10.43
3462.0,1.92,0.2,9.86
3475.0,1.71,-0.08,9.87
3488.0,1.02,-0.6,10.1
3501.0,0.21,-0.96,9.62
3514.0,-0.19,-0.82,8.51
3526.0,-0.26,-0.43,7.52
3539.0,0.47,-0.13,7.27
3552.0,0.94,-0.27,8.73
3565.0,0.7,-1.05,9.76
3578.0,-0.27,-1.99,10.0
3591.0,-1.21,-2.57,9.68
3604.0,-1.44,-2.73,9.21
3617.0,-1.17,-2.4,8.51
3629.0,-0.21,-1.91,8.04
3642.0,0.28,-1.97,8.83
3655.0,0.11,-2.47,9.51
3668.0,-0.78,-3.04,9.43
3681.0,-1.56,-3.56,9.42
3694.0,-2.29,-3.97,9.58
3707.0,-2.69,-4.66,10.26
3720.0,-2.78,-5.13,10.97
3732.0,-2.56,-5.04,11.0
3745.0,-2.06,-4.41,10.25
3758.0,-1.44,-3.66,9.65
3771.0,-0.95,-2.99,9.3
3784.0,-0.78,-2.51,8.89
3797.0,-0.69,-2.27,8.52
3810.0,-0.66,-2.26,8.54
3823.0,-0.55,-2.37,8.64
3835.0,-0.43,-2.73,9.18
3848.0,-0.5,-3.11,9.96
3861.0,-0.67,-3.43,10.25
3874.0,-1.27,-3.48,9.93
3887.0,-1.72,-3.18,8.98
3900.0,-1.81,-2.67,8.35
3913.0,-1.47,-2.19,8.36
3926.0,-1.02,-1.81,8.92
3938.0,-0.88,-1.69,9.48
3951.0,-1.09,-1.53,9.77
3964.0,-1.49,-1.36,9.67
3977.0,-2.09,-1.22,9.42
3990.0,-2.63,-0.93,8.79
4003.0,-2.68,-0.39,8.1
4016.0,-1.9,-0.05,8.96
4029.0,-0.94,0.21,9.99
4041.0,-0.22,0.21,11.1
4054.0,0.3,0.32,11.71
4067.0,0.73,0.5,12.4
4080.0,0.97,0.68,12.77
4093.0,0.83,1.02,12.65
4106.0,0.32,1.65,11.78
4118.0,-0.46,2.33,10.64
4131.0,-1.32,2.73,9.96
4144.0,-1.82,2.87,9.79
4157.0,-1.92,2.84,10.13
4170.0,-1.67,2.68,10.75
4183.0,-1.35,2.66,10.97
4196.0,-0.93,2.69,11.36
4208.0,-0.59,2.64,11.94
4221.0,-0.3,2.58,12.38
4234.0,0.0,2.62,12.56
4247.0,0.29,2.76,12.28
4260.0,0.55,3.0,11.54
4273.0,0.87,3.22,11.2
4286.0,1.1,3.22,11.11
4298.0,1.05,3.18,10.76
4311.0,0.97,3.2,10.33
4324.0,0.94,3.17,10.05
4337.0,0.85,3.02,9.99
4350.0,0.76,2.67,10.21
4363.0,0.44,2.07,10.53
4375.0,0.13,1.79,10.3
4388.0,-0.1,1.79,9.82
4401.0,-0.16,1.76,9.57
4414.0,-0.24,1.4,9.78
4427.0,-0.29,0.72,10.23
4440.0,-0.6,-0.26,11.26
4453.0,-0.76,-1.03,11.6
4465.0,-1.02,-1.21,10.86
4478.0,-0.94,-0.92,9.77
4491.0,-0.25,-0.24,8.9
4504.0,0.4,0.33,8.73
4517.0,0.36,-0.17,9.79
4530.0,-0.38,-1.06,10.21
4543.0,-1.31,-1.76,10.03
4556.0,-1.99,-2.13,9.74
4568.0,-2.16,-2.07,9.15
4581.0,-1.56,-1.75,9.07
4594.0,-0.8,-1.59,9.57
4607.0,-0.58,-1.72,10.0
4620.0,-1.02,-2.19,10.16
4633.0,-1.69,-2.69,9.98
4646.0,-2.21,-3.01,9.73
4659.0,-2.33,-3.13,9.52
4671.0,-1.85,-2.99,9.28
4684.0,-1.12,-2.66,9.04
4697.0,-0.51,-2.34,8.88
4710.0,-0.23,-2.2,8.96
4723.0,-0.48,-2.54,9.25
4736.0,-0.95,-3.18,9.58
4749.0,-1.33,-3.69,9.93
4762.0,-1.65,-4.06,10.21
4774.0,-1.91,-4.16,10.12
4787.0,-1.95,-3.91,9.79
4800.0,-2.02,-3.7,9.63
4813.0,-2.17,-3.46,9.14
4826.0,-2.05,-3.04,8.56
4839.0,-1.51,-2.58,8.49
4852.0,-0.83,-2.29,8.84
4865.0,-0.17,-2.18,9.32
4877.0,0.23,-2.24,9.8
4890.0,0.25,-2.49,10.09
4903.0,-0.08,-2.69,9.99
4916.0,-0.66,-2.84,9.51
4929.0,-1.04,-2.72,8.83
4942.0,-1.23,-2.43,8.45
4955.0,-1.04,-2.02,8.14
4967.0,-0.72,-1.81,8.67
4980.0,-0.52,-1.82,9.32
4993.0,-0.63,-1.83,9.62
5006.0,-0.81,-1.49,9.06
5019.0,-0.78,-0.88,8.22
5032.0,-0.42,-0.5,8.48
5045.0,0.09,-0.5,9.94
5058.0,0.38,-0.51,11.37
5070.0,0.63,-0.74,12.5
5083.0,0.63,-0.48,12.67
5096.0,0.5,-0.15,12.39
5109.0,0.37,0.41,11.67
5122.0,0.29,1.19,10.84
5135.0,0.38,2.05,10.18
5148.0,0.38,2.67,10.11
5160.0,0.2,2.97,9.93
5173.0,-0.37,3.45,9.1
5186.0,-0.77,3.41,9.13
5199.0,-1.12,3.04,9.87
5212.0,-1.25,2.87,10.31
5225.0,-1.19,2.85,10.7
5238.0,-1.06,3.01,10.74
5250.0,-0.97,3.2,10.54
5263.0,-0.9,3.23,10.79
5276.0,-0.75,3.07,11.47
5289.0,-0.51,3.06,11.64
5302.0,-0.29,3.28,11.15
5315.0,-0.02,3.48,10.63
5328.0,0.17,3.57,10.34
5340.0,0.26,3.6,10.3
5353.0,0.22,3.49,10.4
5366.0,-0.04,3.29,10.44
5379.0,-0.37,2.9,10.44
5392.0,-0.78,2.54,10.31
5405.0,-1.03,2.14,10.18
5418.0,-1.01,1.82,10.07
5430.0,-0.68,1.72,9.98
5443.0,-0.33,1.75,9.92
5456.0,-0.08,1.87,9.73
5469.0,0.39,2.04,9.8
5482.0,0.64,1.95,10.25
5495.0,0.26,1.36,10.63
5507.0,-0.68,0.38,10.56
5520.0,-1.27,-0.16,10.12
5533.0,-1.25,-0.34,9.74
5546.0,-0.72,-0.25,9.8
5559.0,-0.23,-0.25,10.21
5572.0,-0.16,-0.55,10.76
5585.0,-0.46,-0.9,10.75
5598.0,-0.88,-1.16,10.25
5610.0,-0.86,-1.31,9.89
5623.0,-0.38,-1.36,10.2
5636.0,-0.11,-1.35,10.22
5649.0,0.56,-1.38,10.28
5662.0,-0.09,-1.65,10.57
5675.0,-0.94,-2.28,10.51
5688.0,-1.81,-2.65,9.94
5701.0,-1.91,-2.58,9.2
5713.0,-1.44,-2.19,8.58
5726.0,-0.71,-2.05,8.79
5739.0,-0.25,-2.04,9.29
5752.0,-0.44,-2.4,9.94
5765.0,-1.18,-3.07,10.41
5778.0,-1.98,-3.82,10.54
5791.0,-2.6,-4.2,10.26
5804.0,-2.67,-4.1,9.81
5816.0,-2.33,-3.86,9.52
5829.0,-1.95,-3.56,9.26
5842.0,-1.62,-3.37,9.24
5855.0,-1.49,-3.16,9.1
5868.0,-1.56,-2.88,8.6
5881.0,-1.47,-2.67,8.3
5894.0,-1.32,-2.37,8.14
5907.0,-1.05,-2.2,8.1
5919.0,-0.63,-1.96,8.0
5932.0,-0.1,-1.95,8.32
5945.0,0.3,-2.2,9.11
5958.0,0.5,-2.51,9.76
5971.0,0.15,-2.79,10.05
5984.0,-0.51,-2.97,9.92
5997.0,-1.29,-3.14,9.73
6009.0,-1.66,-3.11,9.39
6022.0,-1.59,-2.96,9.46
6035.0,-1.06,-2.52,9.69
6048.0,-0.53,-1.94,9.87
6061.0,-0.34,-1.61,9.79
6074.0,-0.44,-1.42,9.55
6087.0,-0.65,-1.18,9.27
6100.0,-0.89,-0.73,8.69
6112.0,-1.19,-0.42,8.69
6125.0,-1.32,-0.35,9.0
6138.0,-1.44,-0.3,9.4
6151.0,-1.79,-0.29,9.88
6164.0,-2.16,-0.28,10.04
6177.0,-2.49,-0.02,9.81
6190.0,-2.74,0.4,9.64
6203.0,-2.86,0.8,9.72
6215.0,-2.76,1.07,9.99
6228.0,-2.63,1.32,10.36
6241.0,-2.33,1.56,10.77
6254.0,-2.04,2.06,10.73
6267.0,-1.77,2.66,10.78
6280.0,-1.29,3.08,11.31
6293.0,-0.88,3.33,12.06
6305.0,-0.76,3.28,12.81
6318.0,-0.59,3.39,13.24
6331.0,-0.65,3.43,13.25
6344.0,-0.9,3.45,13.07
6357.0,-1.19,3.4,12.94
6370.0,-1.62,3.17,12.92
6383.0,-2.08,2.95,12.38
6395.0,-2.49,2.87,11.48
6408.0,-2.5,2.93,10.81
6421.0,-2.06,3.13,10.45
6434.0,-1.55,3.27,10.46
6447.0,-1.41,3.09,10.64
6460.0,-1.56,2.66,10.54
6473.0,-1.85,2.33,10.07
6485.0,-2.01,2.15,9.57
6498.0,-1.91,2.06,9.24
6511.0,-1.33,1.97,9.31
6524.0,-0.44,2.05,9.6
6537.0,0.32,2.35,9.62
6550.0,0.55,2.52,9.2
6563.0,0.3,2.46,8.98
6575.0,-0.18,2.04,9.04
6588.0,-0.46,1.49,9.46
6601.0,-0.59,0.78,10.1
6614.0,-0.76,0.11,10.55
6627.0,-0.98,-0.61,11.33
6640.0,-1.56,-1.14,11.39
6653.0,-1.9,-1.33,10.85
6666.0,-2.15,-1.29,10.34
6678.0,-2.22,-1.14,9.76
6691.0,-2.28,-0.98,9.07
6704.0,-2.21,-0.99,8.56
6717.0,-1.49,-0.82,8.42
6730.0,-0.96,-0.91,8.85
6743.0,-1.14,-1.67,9.75
6756.0,-1.73,-2.4,9.99
6769.0,-2.39,-2.84,9.91
6781.0,-2.37,-3.0,9.76
6794.0,-1.67,-2.55,9.19
6807.0,-0.75,-2.1,8.88
6820.0,-0.03,-1.81,9.1
6833.0,0.16,-1.92,9.46
6846.0,-0.34,-2.2,9.44
6859.0,-1.18,-2.84,9.57
6872.0,-1.89,-3.53,9.93
6884.0,-2.21,-3.92,9.95
6897.0,-2.24,-3.98,9.86
6910.0,-1.99,-3.87,9.88
6923.0,-1.85,-3.68,9.8
6936.0,-1.71,-3.55,9.64
6949.0,-1.66,-3.35,9.49
6962.0,-1.48,-3.08,9.28
6975.0,-1.26,-2.87,9.23
6987.0,-1.12,-2.8,9.17
7000.0,-0.89,-2.72,9.14
7013.0,-0.56,-2.56,9.05
7026.0,0.18,-2.28,9.31
7039.0,0.69,-1.81,9.9
7052.0,1.06,-1.87,10.76
7065.0,0.62,-2.28,11.79
7077.0,-0.42,-1.8,10.32
7090.0,-1.28,-1.33,8.83
7103.0,-1.49,-1.34,8.85
7116.0,-1.18,-1.33,9.4
7129.0,-0.65,-0.82,9.38
7142.0,-0.25,-0.43,9.3
7155.0,-0.06,-0.26,9.53
7168.0,-0.38,-0.31,9.75
7180.0,-0.92,-0.39,9.69
7193.0,-1.33,-0.25,9.13
7206.0,-1.58,0.36,8.2
7219.0,-1.6,0.94,7.74
7232.0,-1.49,1.35,7.76
7245.0,-1.37,1.4,8.54
7258.0,-1.38,1.31,9.04
7270.0,-1.27,1.36,9.24
7283.0,-0.87,1.79,9.3
7296.0,-0.49,2.06,9.81
7309.0,-0.25,2.27,10.42
7322.0,-0.19,2.58,10.73
7335.0,-0.38,2.72,11.18
7348.0,-0.94,2.7,11.54
7360.0,-1.49,2.72,11.51
7373.0,-2.04,2.83,11.77
7386.0,-2.47,2.68,12.5
7399.0,-3.03,2.63,13.1
7412.0,-3.41,2.61,13.09
7425.0,-3.69,2.76,12.55
7438.0,-3.56,3.21,11.62
7451.0,-3.27,3.52,11.24
7463.0,-2.95,3.73,10.89
7476.0,-2.72,3.72,10.81
7489.0,-2.59,3.5,10.93
7502.0,-2.57,3.08,11.15
7515.0,-2.63,2.43,11.53
7528.0,-2.62,2.01,11.57
7541.0,-2.47,1.82,11.34
7553.0,-2.0,1.84,11.07
7566.0,-1.46,2.12,10.37
7579.0,-0.87,2.67,9.26
7592.0,-0.35,3.28,8.53
7605.0,-0.05,3.21,8.74
7618.0,-0.0,2.45,9.89
7631.0,-0.02,1.66,10.71
7643.0,-0.33,1.19,11.04
7656.0,-0.69,0.94,10.48
7669.0,-0.82,0.83,10.17
7682.0,-0.65,0.68,10.1
7695.0,-0.79,0.4,10.13
7708.0,-1.24,-0.09,10.06
7721.0,-2.03,-0.62,9.88
7733.0,-2.7,-1.19,9.59
7746.0,-3.0,-1.6,9.5
7759.0,-2.74,-1.68,9.48
7772.0,-2.25,-1.73,9.34
7785.0,-1.75,-1.6,9.31
7798.0,-1.54,-1.78,9.44
7811.0,-1.43,-2.43,9.84
7824.0,-1.62,-2.78,9.79
7836.0,-1.78,-2.76,9.05
7849.0,-1.15,-2.17,7.86
7862.0,-0.03,-1.64,7.67
7875.0,0.61,-1.82,8.67
7888.0,1.03,-2.44,9.93
7901.0,1.17,-3.24,10.98
7914.0,0.68,-3.73,11.29
7926.0,0.09,-3.93,10.9
7939.0,-0.22,-3.87,10.03
7952.0,-0.22,-3.78,9.92
7965.0,-0.32,-3.84,10.06
7978.0,-0.52,-3.78,9.75
7991.0,-0.85,-3.7,9.43
8004.0,-1.16,-3.6,9.04
8017.0,-1.39,-3.41,8.68
8029.0,-1.42,-3.19,8.44
8042.0,-1.35,-3.06,8.68
8055.0,-1.4,-3.08,8.87
8068.0,-1.3,-3.02,8.68
8081.0,-0.9,-2.71,8.24
8094.0,-0.28,-2.31,8.26
8107.0,-0.05,-2.24,8.51
8120.0,-0.11,-2.34,8.66
8132.0,-0.47,-2.31,8.75
8145.0,-1.15,-2.29,8.29
8158.0,-1.75,-2.14,7.6
8171.0,-2.03,-1.91,7.24
8184.0,-2.14,-2.07,8.22
8197.0,-1.89,-2.32,9.62
8210.0,-1.56,-2.2,10.63
8223.0,-0.85,-2.18,11.37
8235.0,-0.8,-1.78,11.39
8248.0,-0.78,-1.35,10.7
8261.0,-0.95,-0.9,10.55
8274.0,-1.0,-0.61,10.71
8287.0,-0.96,-0.15,10.75
8300.0,-0.93,0.45,10.56
8313.0,-1.02,1.06,10.06
8326.0,-1.37,1.42,9.38
8338.0,-1.36,1.51,9.53
8351.0,-0.7,1.67,10.41
8364.0,-0.06,1.87,11.48
8377.0,0.14,2.15,11.88
8390.0,0.02,2.48,11.73
8403.0,-0.46,2.85,11.15
8415.0,-1.1,3.01,10.63
8428.0,-1.31,2.78,11.37
8441.0,-1.27,2.78,12.1
8454.0,-0.96,2.91,12.76
8467.0,-0.42,2.71,13.49
8480.0,-0.09,2.52,14.04
8493.0,-0.2,2.34,14.12
8506.0,-0.65,1.99,13.8
8518.0,-1.22,1.78,12.88
8531.0,-1.51,2.04,11.53
8544.0,-1.46,2.41,10.47
8557.0,-1.12,2.69,9.76
8570.0,-1.24,3.14,8.98
8583.0,-0.7,2.92,9.35
8596.0,-0.42,2.27,10.61
8608.0,-0.71,1.48,11.31
8621.0,-1.45,0.96,10.56
8634.0,-1.89,0.8,9.4
8647.0,-1.57,1.07,8.86
8660.0,-0.6,1.61,8.34
8673.0,0.31,2.11,8.02
8686.0,1.31,2.39,8.31
8698.0,1.73,2.34,8.98
8711.0,1.51,1.63,9.91
8724.0,0.41,0.4,10.49
8737.0,-1.01,-0.75,10.21
8750.0,-2.14,-1.43,9.6
8763.0,-2.9,-1.8,9.33
8776.0,-2.9,-2.19,9.5
8788.0,-2.59,-2.51,9.7
8801.0,-2.07,-2.64,10.47
8814.0,-1.88,-2.58,10.43
8827.0,-2.11,-2.84,10.39
8840.0,-2.29,-3.33,10.44
8853.0,-2.26,-3.65,10.52
8866.0,-1.97,-3.68,10.3
8879.0,-1.4,-3.31,9.93
8891.0,-0.8,-3.06,9.71
8904.0,-0.54,-3.02,9.73
8917.0,-0.75,-2.96,9.4
8930.0,-1.14,-2.99,9.06
8943.0,-1.43,-3.12,8.98
8956.0,-1.67,-3.35,8.91
8969.0,-1.67,-3.63,9.01
8982.0,-1.19,-3.77,9.46
8994.0,-0.67,-3.67,9.64
9007.0,-0.37,-3.48,9.42
9020.0,-0.53,-3.47,9.23
9033.0,-0.96,-3.69,9.33
9046.0,-1.5,-4.12,9.5
9059.0,-2.06,-4.58,9.87
9072.0,-2.5,-4.78,9.96
9085.0,-2.79,-4.75,9.66
9097.0,-2.72,-4.5,9.26
9110.0,-2.28,-3.95,8.75
9123.0,-1.64,-3.42,8.51
9136.0,-1.02,-3.09,8.6
9149.0,-0.56,-2.92,8.84
9162.0,-0.32,-2.76,9.06
9175.0,-0.22,-2.9,9.28
9188.0,-0.29,-2.97,9.24
9200.0,-0.47,-2.93,9.01
9213.0,-0.67,-2.83,8.66
9226.0,-0.99,-2.61,8.27
9239.0,-0.98,-2.52,8.63
9252.0,-0.9,-2.66,9.43
9265.0,-0.88,-2.74,10.02
9278.0,-1.26,-2.7,10.21
9291.0,-1.56,-2.36,9.63
9303.0,-1.71,-1.84,9.12
9316.0,-1.49,-1.17,8.67
9329.0,-1.37,-0.42,8.28
9342.0,-1.28,-0.08,8.9
9355.0,-1.29,-0.17,10.13
9368.0,-1.38,-0.19,10.96
9381.0,-1.54,0.01,11.15
9393.0,-1.49,0.31,11.14
9406.0,-1.09,0.93,10.81
9419.0,-0.78,1.6,10.7
9432.0,-0.47,2.23,10.51
9445.0,-0.5,2.86,10.09
9458.0,-0.73,3.2,9.86
9471.0,-1.13,3.26,9.93
9483.0,-1.85,3.14,10.0
9496.0,-2.75,2.91,9.78
9509.0,-3.61,2.87,9.17
9522.0,-3.7,2.98,9.18
9535.0,-3.07,2.9,10.39
9548.0,-2.17,3.0,11.29
9561.0,-1.37,3.18,11.98
9574.0,-0.73,3.25,12.44
9586.0,-0.47,3.15,12.5
9599.0,-0.42,3.12,12.25
9612.0,-0.24,3.25,11.84
9625.0,-0.18,3.39,11.38
9638.0,-0.29,3.46,10.89
9651.0,-0.55,3.48,10.45
9664.0,-0.89,3.42,10.24
9676.0,-1.27,2.89,10.72
9689.0,-1.67,2.18,11.18
9702.0,-2.0,1.62,11.2
9715.0,-2.15,1.23,10.81
9728.0,-2.28,1.07,10.07
9741.0,-2.11,1.09,9.47
9754.0,-1.41,1.42,9.23
9766.0,-0.58,1.83,9.56
9779.0,-0.06,1.87,9.92
9792.0,-0.01,1.62,10.15
9805.0,-0.37,1.04,10.28
9818.0,-0.86,0.38,10.36
9831.0,-0.98,0.05,10.04
9844.0,-0.72,0.24,9.26
9856.0,-0.22,0.5,8.72
9869.0,-0.21,0.09,9.49
9882.0,-0.74,-0.97,10.41
9895.0,-1.77,-2.09,10.83
9908.0,-2.52,-2.72,10.35
9921.0,-2.68,-2.79,9.61
9934.0,-2.41,-2.88,9.65
9946.0,-2.19,-3.22,9.96
9959.0,-2.29,-3.93,10.5
9972.0,-2.35,-4.3,10.36
9985.0,-2.01,-4.09,9.58
9998.0,-1.27,-3.39,8.62
10011.0,-0.4,-2.67,7.69
10024.0,0.24,-2.42,7.74
10037.0,0.39,-2.82,8.67
10049.0,0.0,-3.66,9.69
10062.0,-0.7,-4.42,10.33
10075.0,-1.02,-5.11,10.6
10088.0,-1.4,-5.31,10.53
10101.0,-1.31,-5.13,10.27
10114.0,-1.13,-4.82,10.13
10127.0,-1.21,-4.72,10.0
10140.0,-1.46,-4.77,10.0
10152.0,-1.74,-4.99,10.05
10165.0,-1.85,-5.06,10.09
10178.0,-1.72,-4.77,9.83
10191.0,-1.36,-4.2,9.46
10204.0,-0.78,-3.7,9.11
10217.0,-0.24,-3.26,8.99
10230.0,0.21,-2.88,8.75
10243.0,0.45,-2.63,8.72
10255.0,0.37,-2.74,9.05
10268.0,0.03,-3.01,9.5
10281.0,-0.53,-3.23,9.53
10294.0,-1.06,-3.26,9.36
10307.0,-1.35,-3.24,9.16
10320.0,-1.14,-2.82,8.95
10333.0,-0.8,-2.32,9.1
10345.0,-0.44,-1.86,9.09
10358.0,-0.44,-1.72,9.64
10371.0,-0.75,-1.9,10.3
10384.0,-1.36,-1.89,10.12
10397.0,-1.81,-1.51,9.79
10410.0,-1.84,-1.03,9.31
10423.0,-1.27,-0.5,9.12
10436.0,-0.55,0.15,9.65
10448.0,-0.25,0.5,10.42
10461.0,-0.4,0.53,10.91
10474.0,-0.65,0.67,11.06
10487.0,-0.47,1.07,11.05
10500.0,-0.32,1.7,10.79
10513.0,-0.37,2.29,10.34
10526.0,-0.59,2.89,9.83
10538.0,-0.9,3.27,10.01
10551.0,-1.2,3.36,10.41
10564.0,-1.41,3.27,10.75
10577.0,-1.15,3.42,10.77
10590.0,-0.63,3.75,11.03
10603.0,-0.01,3.96,11.41
10616.0,0.34,3.95,12.12
10628.0,0.36,3.8,12.56
10641.0,-0.31,3.4,12.36
10654.0,-1.33,3.04,11.34
10667.0,-1.9,2.97,10.23
10680.0,-1.98,3.07,9.74
10693.0,-1.7,3.28,9.51
10706.0,-1.23,3.45,9.5
10718.0,-0.85,3.59,9.49
10731.0,-0.81,3.33,9.82
10744.0,-0.94,2.54,10.45
10757.0,-1.22,1.75,10.87
10770.0,-1.41,1.29,10.56
10783.0,-1.48,1.21,10.0
10796.0,-1.28,1.42,9.46
10808.0,-0.68,1.89,9.06
10821.0,0.15,2.05,9.54
10834.0,1.12,1.98,10.52
10847.0,1.51,1.65,11.56
10860.0,1.06,1.0,11.71
10873.0,0.23,0.41,11.29
10886.0,-0.45,-0.05,10.52
10898.0,-0.66,-0.28,10.12
10911.0,-0.34,-0.3,9.46
10924.0,0.12,-0.22,9.37
10937.0,0.43,-0.38,9.87
10950.0,-0.03,-1.12,10.57
10963.0,-0.5,-1.5,10.01
10976.0,-0.79,-1.69,9.49
10989.0,-0.82,-1.97,9.25
11001.0,-0.54,-2.35,9.36
11014.0,-0.25,-2.59,10.21
11027.0,-0.81,-3.46,11.06
11040.0,-1.6,-3.99,10.73
11053.0,-1.93,-3.82,9.69
11066.0,-1.98,-3.73,9.47
11079.0,-1.71,-3.78,9.45
11092.0,-0.97,-3.64,9.64
11104.0,-0.27,-3.45,10.06
11117.0,-0.1,-3.66,10.77
11130.0,-0.34,-4.04,11.07
11143.0,-0.62,-4.21,10.7
11156.0,-0.57,-3.9,9.97
11169.0,-0.42,-3.64,9.65
11182.0,-0.25,-3.53,9.56
11195.0,-0.25,-3.57,9.46
11207.0,-0.41,-3.65,9.32
11220.0,-0.69,-3.69,9.09
11233.0,-0.86,-3.69,8.91
11246.0,-0.83,-3.58,8.85
11259.0,-0.53,-3.26,8.56
11272.0,-0.06,-2.86,8.18
11285.0,0.41,-2.53,7.85
11297.0,0.83,-2.62,8.14
11310.0,0.81,-3.22,9.48
11323.0,0.26,-4.15,10.78
11336.0,-0.33,-4.63,10.91
11349.0,-0.71,-4.32,10.02
11362.0,-0.78,-3.72,9.09
11375.0,-0.48,-3.11,8.57
11388.0,-0.05,-2.81,9.09
11400.0,0.28,-2.87,10.03
11413.0,0.31,-2.9,10.37
11426.0,0.0,-2.76,10.24
11439.0,-0.23,-2.62,10.19
11452.0,-0.39,-2.27,9.9
11465.0,-0.6,-1.82,9.66
11478.0,-0.59,-1.32,9.54
11491.0,-0.53,-0.91,9.37
11503.0,-1.01,-0.14,9.28
11516.0,-0.86,0.44,8.99
11529.0,-0.75,0.92,9.25
11542.0,-0.42,1.19,9.58
11555.0,-0.25,1.5,9.79
11568.0,-0.11,1.85,9.93
11581.0,0.19,1.96,10.5
11593.0,0.42,2.2,10.95
11606.0,0.54,2.69,10.78
11619.0,0.63,3.3,10.59
11632.0,0.66,3.86,10.61
11645.0,0.33,4.15,10.77
11658.0,-0.39,3.97,11.04
11670.0,-1.42,3.59,11.18
11683.0,-2.29,3.37,10.87
11696.0,-2.7,3.26,10.84
11709.0,-2.6,3.2,11.26
11722.0,-2.06,3.16,11.88
11735.0,-1.6,3.14,12.31
11748.0,-1.23,3.23,11.91
11760.0,-1.01,3.41,11.34
11773.0,-0.92,3.51,10.87
11786.0,-0.98,3.48,10.66
11799.0,-1.06,3.22,10.9
11812.0,-1.11,2.7,11.58
11825.0,-1.28,2.04,12.05
11838.0,-1.6,1.35,11.85
11850.0,-1.8,1.01,11.04
11863.0,-1.43,1.36,9.98
11876.0,-0.8,2.12,8.89
11889.0,-0.14,2.76,8.65
11902.0,0.45,2.68,9.27
11915.0,0.79,2.31,9.93
11928.0,0.78,2.07,9.98
11940.0,0.21,1.48,10.1
11953.0,-0.28,0.74,10.2
11966.0,-0.38,0.45,10.13
11979.0,-0.08,0.61,9.64
11992.0,0.43,0.8,9.38
12005.0,1.01,1.12,9.4
12018.0,0.49,0.71,10.18
12030.0,-0.59,-0.87,11.45
12043.0,-1.95,-2.25,11.99
12056.0,-3.01,-2.87,11.31
12069.0,-3.54,-3.04,10.24
12082.0,-3.31,-2.79,9.2
12095.0,-2.15,-1.88,8.12
12108.0,-0.78,-0.76,7.72
12121.0,-0.06,-0.47,8.21
12133.0,-0.66,-1.26,8.66
12146.0,-2.08,-2.49,8.83
12159.0,-3.21,-3.51,9.01
12172.0,-3.54,-4.29,9.14
12185.0,-3.02,-4.33,9.21
12198.0,-1.31,-3.55,9.02
12211.0,-0.19,-2.91,9.23
12224.0,-0.13,-3.27,9.95
12236.0,-1.21,-4.29,10.69
12249.0,-2.59,-5.02,10.59
12262.0,-3.22,-5.42,10.41
12275.0,-2.82,-5.29,10.14
12288.0,-2.02,-4.81,9.89
12301.0,-1.33,-4.28,9.63
12314.0,-0.96,-3.9,9.19
12327.0,-0.81,-3.62,9.14
12339.0,-1.01,-3.58,9.18
12352.0,-1.33,-3.65,9.22
12365.0,-1.67,-3.67,9.19
12378.0,-1.43,-3.26,8.85
12391.0,-1.07,-2.84,8.6
12404.0,-0.45,-2.51,8.44
12417.0,0.12,-2.23,8.79
12429.0,0.32,-2.4,9.42
12442.0,-0.11,-2.78,10.1
12455.0,-0.95,-3.12,10.52
12468.0,-1.87,-2.86,9.56
12481.0,-2.24,-2.25,8.27
12494.0,-1.73,-1.76,8.05
12507.0,-0.85,-1.38,8.66
12520.0,-0.15,-1.18,9.48
12532.0,0.02,-1.34,10.09
12545.0,-0.28,-1.72,10.54
12558.0,-0.9,-2.24,10.86
12571.0,-1.52,-2.27,10.52
12584.0,-1.93,-1.88,10.0
12597.0,-2.15,-1.21,9.42
12610.0,-2.24,-0.38,8.56
12623.0,-1.95,0.42,8.27
12635.0,-1.54,1.04,8.23
12648.0,-1.15,1.43,8.88
12661.0,-0.73,1.54,9.88
12674.0,-0.47,1.61,10.81
12687.0,-0.36,1.7,11.47
12700.0,-0.56,1.72,11.77
12713.0,-1.1,1.94,11.72
12725.0,-1.7,2.29,11.41
12738.0,-2.14,2.7,11.0
12751.0,-2.45,3.1,10.72
12764.0,-2.54,3.33,10.84
12777.0,-2.63,3.46,10.99
12790.0,-2.69,3.48,11.38
12803.0,-2.59,3.51,11.77
12815.0,-2.4,3.61,11.83
12828.0,-2.29,3.5,11.96
12841.0,-2.3,3.1,12.24
12854.0,-2.21,2.98,11.83
