timestamp,accX,accY,accZ
2.0,-0.15,-2.11,10.61
15.0,-0.42,-1.88,8.46
28.0,-1.16,-2.5,9.96
41.0,-1.8,-2.92,10.07
54.0,-2.17,-3.19,10.0
67.0,-2.11,-3.38,10.3
79.0,-1.73,-3.23,10.07
92.0,-1.19,-2.73,9.53
105.0,-0.82,-2.32,9.28
118.0,-0.66,-2.09,9.02
131.0,-0.82,-2.1,8.99
144.0,-1.01,-2.22,9.05
157.0,-1.19,-2.46,9.24
170.0,-1.28,-2.71,9.42
182.0,-1.31,-2.72,9.56
195.0,-1.28,-2.67,9.48
208.0,-1.29,-2.42,9.09
221.0,-1.33,-2.13,8.75
234.0,-1.36,-1.99,8.47
247.0,-1.46,-1.87,8.25
260.0,-1.54,-1.85,8.12
273.0,-1.51,-1.86,8.16
285.0,-1.39,-1.82,8.33
298.0,-1.24,-1.76,8.56
311.0,-1.22,-1.86,8.95
324.0,-1.31,-1.98,9.23
337.0,-1.37,-1.99,9.29
350.0,-1.21,-2.0,9.54
363.0,-0.96,-1.95,9.85
376.0,-0.74,-1.86,9.92
388.0,-0.72,-1.77,9.78
401.0,-0.69,-1.75,9.49
414.0,-0.64,-1.87,9.9
427.0,-0.72,-1.9,10.2
440.0,-0.94,-1.9,10.27
453.0,-1.28,-1.83,10.12
466.0,-1.39,-1.66,9.67
479.0,-1.21,-1.59,9.8
491.0,-0.76,-1.53,10.11
504.0,-0.39,-1.3,10.1
517.0,-0.28,-0.91,9.54
530.0,-0.41,-0.78,9.31
543.0,-0.82,-1.01,9.41
556.0,-1.48,-1.62,9.93
569.0,-2.13,-2.41,10.55
582.0,-2.41,-2.7,10.73
594.0,-2.11,-2.26,10.29
607.0,-1.51,-1.6,10.23
620.0,-0.73,-0.95,9.87
633.0,-0.07,-0.31,9.85
646.0,0.18,-0.05,10.33
659.0,0.08,-0.07,10.58
672.0,-0.23,-0.31,10.92
685.0,-0.5,-0.5,11.23
697.0,-0.69,-0.39,11.17
710.0,-0.93,-0.22,11.05
723.0,-1.14,0.02,10.43
736.0,-1.37,0.49,10.06
749.0,-1.34,0.87,10.14
762.0,-1.3,1.14,10.54
775.0,-1.3,1.3,10.85
787.0,-1.26,1.26,11.15
800.0,-1.15,1.1,11.5
813.0,-1.07,1.26,11.33
826.0,-1.13,1.67,11.03
839.0,-1.28,1.96,10.61
852.0,-1.41,2.23,10.16
865.0,-1.35,2.54,9.78
877.0,-1.14,2.77,9.73
890.0,-0.95,2.77,10.11
903.0,-1.14,2.39,10.8
916.0,-1.57,1.91,10.68
929.0,-1.84,1.7,10.12
942.0,-1.67,1.85,9.49
955.0,-1.08,2.27,9.07
967.0,-0.49,2.71,8.89
980.0,-0.09,2.94,8.89
993.0,-0.06,2.74,9.7
1006.0,-0.5,2.04,10.65
1019.0,-1.14,1.22,11.11
1032.0,-1.85,0.55,11.03
1045.0,-2.16,0.26,10.4
1057.0,-1.86,0.36,10.04
1070.0,-1.13,0.81,9.62
1083.0,-0.36,1.46,9.46
1096.0,-0.09,1.71,9.98
1109.0,-0.16,1.3,10.58
1122.0,-0.45,0.43,11.36
1135.0,-0.75,-0.25,11.61
1147.0,-0.94,-0.68,11.62
1160.0,-1.12,-0.99,11.51
1173.0,-1.2,-0.96,10.72
1186.0,-0.95,-0.55,9.78
1199.0,-0.3,0.17,9.36
1212.0,0.25,0.75,9.09
1225.0,0.56,0.89,9.02
1238.0,0.3,0.3,9.59
1250.0,-0.56,-0.7,10.17
1263.0,-1.3,-1.53,10.23
1276.0,-1.62,-1.99,10.0
1289.0,-1.18,-1.87,9.25
1302.0,-0.22,-1.01,8.89
1315.0,0.5,-0.12,8.57
1328.0,0.58,0.15,8.49
1340.0,0.05,-0.49,8.99
1353.0,-0.85,-1.66,9.59
1366.0,-1.38,-2.64,10.14
1379.0,-1.37,-2.99,10.02
1392.0,-0.95,-2.69,9.51
1405.0,0.01,-1.99,8.97
1418.0,0.84,-1.37,8.72
1431.0,0.96,-1.58,9.47
1443.0,0.27,-2.4,10.51
1456.0,-0.52,-3.34,10.91
1469.0,-1.26,-3.88,10.89
1482.0,-1.39,-3.89,10.33
1495.0,-0.93,-3.4,9.76
1508.0,-0.0,-2.48,9.12
1521.0,0.61,-1.76,9.17
1533.0,0.41,-1.9,9.66
1546.0,-0.49,-2.49,9.72
1559.0,-1.55,-3.03,9.82
1572.0,-2.34,-3.32,9.81
1585.0,-2.75,-3.3,9.71
1598.0,-2.83,-2.92,9.19
1611.0,-2.37,-2.2,8.52
1624.0,-1.4,-1.59,8.41
1636.0,-0.48,-1.1,8.6
1649.0,0.23,-0.78,8.73
1662.0,0.47,-0.73,8.93
1675.0,0.39,-0.89,8.95
1688.0,0.12,-1.31,9.23
1701.0,-0.35,-1.77,9.35
1714.0,-0.95,-2.02,9.23
1727.0,-1.53,-2.12,8.7
1739.0,-1.84,-2.09,8.44
1752.0,-1.59,-2.13,8.83
1765.0,-1.32,-2.19,9.63
1778.0,-1.34,-2.4,9.98
1791.0,-1.37,-2.46,9.82
1804.0,-1.28,-2.35,9.6
1817.0,-1.26,-2.21,9.31
1830.0,-1.48,-1.99,8.99
1842.0,-1.59,-1.95,9.29
1855.0,-1.46,-1.95,9.71
1868.0,-1.05,-1.85,10.15
1881.0,-0.84,-1.88,10.57
1894.0,-0.9,-1.87,10.44
1907.0,-0.92,-1.68,9.86
1920.0,-0.81,-1.32,9.32
1933.0,-0.55,-0.91,9.32
1945.0,-0.06,-0.37,9.29
1958.0,0.42,0.09,9.69
1971.0,0.48,0.38,9.9
1984.0,0.01,0.49,9.73
1997.0,-0.7,0.21,9.99
2010.0,-1.13,-0.34,11.12
2023.0,-1.29,-0.64,12.18
2035.0,-1.15,-0.45,12.46
2048.0,-0.8,-0.06,12.51
2061.0,-0.23,0.48,12.54
2074.0,0.11,1.06,12.5
2087.0,0.02,1.53,12.33
2100.0,-0.46,1.75,11.97
2113.0,-1.08,1.83,11.6
2125.0,-1.58,1.67,11.75
2138.0,-1.74,1.56,11.68
2151.0,-1.6,1.65,11.61
2164.0,-1.36,1.72,11.69
2177.0,-1.08,1.62,11.88
2190.0,-1.09,1.41,11.75
2203.0,-1.1,1.21,11.32
2215.0,-0.91,1.27,11.09
2228.0,-0.63,1.37,11.08
2241.0,-0.68,1.09,11.48
2254.0,-1.05,0.73,11.54
2267.0,-1.38,0.42,11.46
2280.0,-1.41,0.31,11.35
2293.0,-1.14,0.34,11.37
2305.0,-0.75,0.49,11.09
2318.0,-0.4,0.66,10.6
2331.0,0.06,1.08,9.53
2344.0,0.39,1.74,8.39
2357.0,0.68,2.51,7.87
2370.0,0.78,2.87,7.9
2382.0,0.54,2.49,8.55
2395.0,-0.08,1.68,9.29
2408.0,-0.57,0.73,9.74
2421.0,-0.96,0.17,9.99
2434.0,-1.09,-0.18,10.1
2447.0,-1.14,-0.35,10.07
2460.0,-0.91,-0.34,10.06
2473.0,-0.51,-0.0,9.62
2485.0,0.07,0.67,9.18
2498.0,0.54,1.07,9.38
2511.0,0.63,0.93,9.79
2524.0,0.4,0.57,9.74
2537.0,-0.04,0.24,9.18
2550.0,-0.2,0.35,8.34
2562.0,0.17,0.61,8.44
2575.0,0.51,0.38,9.67
2588.0,0.28,-0.73,11.22
2601.0,-0.25,-1.61,11.38
2614.0,-0.8,-1.89,10.29
2627.0,-0.85,-1.53,9.0
2640.0,-0.57,-1.31,9.1
2653.0,-0.24,-1.54,9.8
2665.0,-0.14,-1.75,10.12
2678.0,-0.23,-1.74,9.67
2691.0,-0.49,-1.68,9.1
2704.0,-0.68,-1.55,8.6
2717.0,-0.6,-1.22,8.03
2730.0,-0.49,-0.94,7.96
2743.0,-0.79,-1.23,8.43
2756.0,-1.23,-1.69,8.53
2768.0,-1.91,-2.15,8.7
2781.0,-2.35,-2.54,8.92
2794.0,-2.52,-2.71,9.01
2807.0,-2.4,-2.77,9.18
2820.0,-2.11,-2.75,9.32
2833.0,-1.82,-2.64,9.49
2846.0,-1.66,-2.67,9.82
2859.0,-1.48,-2.74,10.01
2871.0,-1.4,-2.66,10.01
2884.0,-1.14,-2.51,10.01
2897.0,-0.82,-2.2,9.99
2910.0,-0.5,-1.99,10.13
2923.0,-0.32,-1.85,10.18
2936.0,-0.32,-1.76,9.99
2949.0,-0.44,-1.67,9.77
2962.0,-0.72,-1.64,9.48
2974.0,-0.95,-1.62,9.13
2987.0,-0.94,-1.61,9.05
3000.0,-0.73,-1.59,9.42
3013.0,-0.54,-1.63,9.91
3026.0,-0.22,-1.85,10.49
3039.0,0.15,-1.87,10.78
3052.0,0.35,-1.66,10.64
3064.0,0.52,-1.51,10.7
3077.0,0.25,-1.63,10.51
3090.0,-0.26,-1.85,10.14
3103.0,-0.63,-1.92,9.7
3116.0,-0.62,-1.93,9.73
3129.0,-0.37,-1.88,9.93
3142.0,-0.25,-1.81,9.99
3155.0,-0.33,-1.7,9.9
3167.0,-0.44,-1.53,9.6
3180.0,-0.42,-1.24,9.19
3193.0,-0.37,-0.9,8.99
3206.0,-0.3,-0.8,9.02
3219.0,-0.22,-0.68,9.12
3232.0,-0.0,-0.63,9.01
3245.0,-0.0,-0.48,9.03
3258.0,0.11,-0.65,9.56
3270.0,0.21,-0.67,10.0
3283.0,0.46,-0.6,10.27
3296.0,0.84,-0.38,10.47
3309.0,1.09,-0.03,10.76
3322.0,1.18,0.26,11.26
3335.0,0.79,0.36,11.56
3348.0,0.09,0.37,11.56
3360.0,-0.88,0.31,11.37
3373.0,-1.84,0.42,10.76
3386.0,-2.55,0.56,10.36
3399.0,-2.98,0.73,10.27
3412.0,-2.99,0.81,10.71
3425.0,-2.68,0.76,11.36
3438.0,-2.41,0.79,11.8
3450.0,-2.2,0.91,11.85
3463.0,-1.95,0.98,11.75
3476.0,-1.68,1.0,11.67
3489.0,-1.38,1.04,11.44
3502.0,-1.15,1.23,10.94
3515.0,-1.06,1.34,10.61
3528.0,-1.15,1.31,10.33
3540.0,-1.26,1.25,10.14
3553.0,-1.39,1.08,10.34
3566.0,-1.61,0.52,11.13
3579.0,-1.95,-0.21,11.71
3592.0,-2.32,-0.86,11.72
3605.0,-2.46,-1.2,11.34
3618.0,-1.96,-1.07,10.8
3630.0,-1.01,-0.38,10.04
3643.0,-0.19,0.37,9.31
3656.0,0.32,0.75,9.01
3669.0,0.44,0.89,9.16
3682.0,0.18,0.66,9.73
3695.0,-0.54,0.12,10.01
3708.0,-1.44,-0.5,10.03
3720.0,-2.04,-1.02,10.05
3733.0,-2.28,-1.46,10.18
3746.0,-2.32,-1.7,9.99
3759.0,-2.15,-1.64,9.25
3772.0,-1.78,-1.24,8.33
3785.0,-1.25,-0.68,7.96
3798.0,-0.94,-0.69,8.6
3811.0,-1.24,-1.35,9.35
3823.0,-1.67,-2.11,9.9
3836.0,-2.16,-2.59,10.09
3849.0,-2.55,-2.8,9.95
3862.0,-2.69,-2.86,9.8
3875.0,-2.51,-2.71,9.67
3888.0,-1.9,-2.33,9.36
3901.0,-0.98,-1.93,9.29
3914.0,-0.33,-1.7,9.46
3926.0,-0.16,-1.62,9.89
3939.0,-0.49,-2.23,10.21
3952.0,-1.0,-2.83,10.44
3965.0,-1.45,-3.01,10.01
3978.0,-1.54,-2.91,9.44
3991.0,-1.31,-2.77,9.05
4004.0,-0.87,-2.65,9.22
4017.0,-0.46,-2.66,9.56
4029.0,-0.29,-2.52,9.31
4042.0,-0.43,-2.37,8.93
4055.0,-0.59,-2.24,8.46
4068.0,-0.68,-2.31,8.6
4081.0,-0.56,-2.66,9.51
4094.0,-0.62,-2.89,9.82
4107.0,-0.8,-2.77,9.35
4120.0,-0.94,-2.51,8.71
4132.0,-0.81,-2.28,8.49
4145.0,-0.72,-2.34,8.94
4158.0,-0.76,-2.66,9.48
4171.0,-1.08,-3.05,9.85
4184.0,-1.44,-3.26,9.9
4197.0,-1.64,-3.26,9.74
4210.0,-1.55,-3.07,9.67
4223.0,-1.28,-2.75,9.69
4235.0,-1.02,-2.44,9.77
4248.0,-0.81,-2.27,9.8
4261.0,-0.71,-2.1,9.78
4274.0,-0.7,-1.92,9.57
4287.0,-0.7,-1.75,9.26
4300.0,-0.65,-1.74,9.34
4313.0,-0.69,-1.95,9.64
4326.0,-0.71,-2.34,10.03
4338.0,-0.83,-2.64,10.0
4351.0,-0.84,-2.81,9.87
4364.0,-0.77,-2.9,9.91
4377.0,-0.77,-2.84,9.69
4390.0,-0.79,-2.62,9.11
4403.0,-0.62,-2.38,8.92
4416.0,-0.48,-2.25,8.97
4429.0,-0.65,-2.42,9.36
4441.0,-1.07,-2.77,9.96
4454.0,-1.49,-2.97,10.03
4467.0,-1.68,-2.89,9.7
4480.0,-1.73,-2.54,9.07
4493.0,-1.59,-1.99,8.48
4506.0,-1.44,-1.62,8.33
4519.0,-1.37,-1.35,8.38
4532.0,-1.53,-1.1,8.33
4544.0,-1.73,-0.95,8.3
4557.0,-1.81,-0.81,8.0
4570.0,-1.56,-0.59,7.68
4583.0,-0.91,-0.2,8.04
4596.0,-0.25,0.09,9.01
4609.0,-0.01,0.09,10.2
4622.0,-0.08,0.19,10.73
4634.0,-0.09,0.62,10.81
4647.0,0.05,1.35,10.66
4660.0,0.22,1.91,11.0
4673.0,0.35,2.19,11.48
4686.0,0.15,2.48,11.96
4699.0,-0.2,2.57,12.28
4712.0,-0.81,2.58,12.48
4724.0,-1.52,2.59,12.68
4737.0,-2.2,2.5,12.93
4750.0,-2.61,2.32,13.2
4763.0,-2.98,2.01,13.59
4776.0,-3.31,1.81,13.54
4789.0,-3.29,1.85,13.15
4802.0,-2.89,2.19,12.39
4814.0,-2.13,2.59,11.61
4827.0,-1.42,3.02,10.91
4840.0,-1.03,3.3,10.07
4853.0,-0.53,3.34,9.43
4866.0,0.12,3.25,9.75
4879.0,0.21,2.88,11.24
4892.0,-0.56,1.73,12.3
4904.0,-1.78,0.09,12.72
4917.0,-2.59,-0.85,11.82
4930.0,-2.61,-0.72,10.27
4943.0,-1.04,0.17,9.13
4956.0,0.57,1.33,8.82
4969.0,1.63,2.24,9.11
4982.0,1.95,2.24,8.99
4994.0,1.4,1.55,9.19
5007.0,0.88,0.74,9.37
5020.0,0.64,0.12,9.34
5033.0,0.82,-0.12,9.33
5046.0,1.14,-0.05,9.11
5059.0,1.68,0.25,8.8
5072.0,1.95,0.06,9.5
5084.0,1.52,-0.73,10.18
5097.0,0.57,-1.17,9.79
5110.0,-0.38,-1.29,8.83
5123.0,-0.69,-1.33,8.2
5136.0,-0.31,-1.37,8.3
5149.0,0.44,-1.32,8.57
5162.0,0.96,-1.38,9.11
5174.0,1.05,-1.65,9.57
5187.0,0.82,-2.06,9.78
5200.0,0.31,-2.63,10.04
5213.0,-0.46,-3.3,10.4
5226.0,-1.15,-3.49,10.08
5239.0,-1.48,-3.33,9.27
5252.0,-0.9,-2.7,8.23
5264.0,0.37,-2.0,8.36
5277.0,1.38,-1.97,9.41
5290.0,1.44,-2.19,10.15
5303.0,0.51,-2.98,10.42
5316.0,-0.93,-4.15,10.75
5329.0,-1.93,-4.85,10.88
5342.0,-2.07,-4.56,10.34
5355.0,-1.33,-3.94,9.99
5367.0,-0.34,-3.21,9.68
5380.0,0.18,-3.0,9.86
5393.0,0.14,-3.3,10.26
5406.0,-0.68,-3.77,10.43
5419.0,-1.35,-4.28,10.41
5432.0,-1.86,-4.28,10.14
5445.0,-1.76,-3.94,9.79
5457.0,-1.39,-3.5,9.55
5470.0,-0.88,-2.85,8.98
5483.0,-0.46,-2.41,8.93
5496.0,-0.18,-2.16,8.96
5509.0,-0.29,-2.02,9.18
5522.0,0.04,-2.0,8.72
5535.0,0.29,-2.14,8.6
5548.0,0.27,-2.22,9.14
5560.0,0.32,-2.42,9.43
5573.0,0.08,-2.55,9.3
5586.0,-0.21,-2.67,9.34
5599.0,-0.23,-2.96,9.84
5612.0,-0.42,-3.23,10.38
5625.0,-0.56,-3.29,10.08
5638.0,-0.64,-3.11,9.58
5651.0,-0.63,-2.9,9.52
5663.0,-0.48,-2.77,9.6
5676.0,-0.21,-2.64,9.76
5689.0,0.02,-2.43,9.83
5702.0,-0.09,-2.38,9.78
5715.0,-0.21,-2.19,9.33
5728.0,-0.4,-1.97,8.68
5741.0,-0.27,-1.66,8.2
5754.0,0.21,-1.42,8.46
5766.0,0.84,-1.18,9.21
5779.0,1.28,-1.16,9.81
5792.0,1.53,-1.25,10.26
5805.0,1.38,-1.12,9.98
5818.0,1.27,-0.71,9.12
5831.0,1.61,-0.27,8.86
5844.0,1.87,0.19,9.47
5856.0,1.55,0.69,9.63
5869.0,0.91,0.67,9.91
5882.0,-0.08,0.57,9.65
5895.0,-1.07,0.48,9.08
5908.0,-1.61,0.4,9.21
5921.0,-1.52,0.24,10.21
5933.0,-1.32,0.29,11.33
5946.0,-1.01,0.41,12.14
5959.0,-0.93,0.52,12.64
5972.0,-1.26,0.52,12.91
5985.0,-1.88,0.43,13.09
5998.0,-2.49,0.36,12.97
6011.0,-3.09,0.53,12.44
6023.0,-3.43,0.9,11.83
6036.0,-3.33,1.18,11.69
6049.0,-2.94,1.45,11.81
6062.0,-2.58,1.57,11.91
6075.0,-2.32,1.56,11.75
6088.0,-2.01,1.67,11.26
6101.0,-1.55,1.76,10.94
6114.0,-1.13,2.05,10.39
6126.0,-0.71,2.29,9.91
6139.0,-0.43,2.27,9.89
6152.0,-0.21,2.13,10.31
6165.0,-0.23,1.95,10.71
6178.0,-0.5,1.76,10.79
6191.0,-0.71,1.47,10.81
6204.0,-0.9,1.23,10.93
6216.0,-1.07,0.93,11.03
6229.0,-1.24,0.62,11.07
6242.0,-1.15,0.01,11.62
6255.0,-0.87,-0.77,12.19
6268.0,-0.67,-1.29,12.2
6281.0,-0.22,-0.98,11.41
6294.0,0.5,-0.18,10.35
6306.0,1.1,0.62,9.5
6319.0,1.43,0.78,9.53
6332.0,1.23,0.31,9.96
6345.0,0.63,-0.58,10.07
6358.0,0.14,-1.45,10.14
6371.0,0.32,-1.81,10.23
6384.0,0.74,-1.36,9.34
6396.0,1.49,-0.45,7.94
6409.0,1.93,0.59,7.25
6422.0,2.12,0.32,8.83
6435.0,1.74,-0.66,10.39
6448.0,0.66,-1.96,11.28
6461.0,-0.7,-2.64,10.93
6474.0,-1.68,-2.66,9.41
6486.0,-1.73,-2.29,7.99
6499.0,-0.8,-1.55,7.47
6512.0,0.63,-0.62,7.34
6525.0,1.48,-0.74,8.88
6538.0,1.4,-1.46,10.28
6551.0,0.47,-2.4,10.54
6564.0,-0.78,-2.91,10.29
6576.0,-1.57,-3.02,9.46
6589.0,-1.71,-2.81,8.62
6602.0,-0.9,-2.32,8.21
6615.0,0.44,-1.56,7.86
6628.0,1.39,-1.04,7.94
6641.0,1.79,-1.41,8.93
6654.0,1.37,-2.14,9.89
6666.0,0.59,-3.08,10.24
6679.0,-0.11,-3.86,10.58
6692.0,-0.47,-4.09,10.56
6705.0,-0.42,-3.83,10.32
6718.0,-0.27,-3.44,10.18
6731.0,-0.28,-2.97,9.73
6744.0,-0.48,-2.5,8.93
6757.0,-0.84,-2.29,8.45
6769.0,-1.05,-2.25,8.37
6782.0,-1.15,-2.27,8.72
6795.0,-1.2,-2.2,8.78
6808.0,-1.11,-2.02,8.83
6821.0,-0.8,-1.95,9.13
6834.0,-0.42,-2.09,9.77
6847.0,-0.19,-2.34,10.39
6860.0,-0.21,-2.56,10.63
6872.0,-0.31,-2.6,10.38
6885.0,-0.52,-2.59,10.25
6898.0,-0.74,-2.66,10.08
6911.0,-0.93,-2.52,9.69
6924.0,-0.83,-2.25,9.32
6937.0,-0.37,-1.79,9.08
6950.0,0.11,-1.47,9.25
6963.0,0.4,-1.47,9.59
6975.0,0.11,-1.32,9.44
6988.0,-0.24,-0.99,8.69
7001.0,-0.41,-0.96,8.6
7014.0,-0.26,-1.55,9.63
7027.0,-0.07,-1.98,10.51
7040.0,0.29,-1.82,10.67
7053.0,0.52,-1.22,10.01
7065.0,0.78,-0.6,9.41
7078.0,0.9,-0.31,9.31
7091.0,0.46,-0.09,9.42
7104.0,0.02,-0.18,9.24
7117.0,-0.42,-0.56,9.56
7130.0,-0.57,-0.76,9.86
7143.0,-0.52,-0.66,10.01
7156.0,0.09,-0.34,9.81
7168.0,0.42,0.2,9.99
7181.0,0.6,0.43,10.22
7194.0,0.19,0.25,10.46
7207.0,-0.5,-0.11,10.91
7220.0,-1.06,-0.46,11.21
7233.0,-1.27,-0.66,11.61
7246.0,-1.17,-0.31,11.82
7258.0,-0.82,0.28,11.93
7271.0,-0.53,0.72,12.49
7284.0,-0.44,0.87,13.04
7297.0,-0.42,0.92,13.23
7310.0,-0.73,0.99,13.08
7323.0,-1.15,1.16,12.51
7336.0,-1.6,1.36,12.05
7348.0,-1.94,1.36,11.93
7361.0,-2.14,1.29,11.86
7374.0,-2.29,1.27,11.54
7387.0,-2.34,1.31,11.06
7400.0,-2.34,1.4,10.61
7413.0,-2.1,1.53,10.2
7426.0,-1.96,1.54,9.97
7438.0,-1.75,1.48,9.89
7451.0,-1.57,1.38,9.76
7464.0,-1.63,1.23,9.74
7477.0,-1.71,0.86,10.16
7490.0,-1.83,0.47,10.66
7503.0,-1.95,0.13,10.89
7516.0,-2.02,-0.09,10.67
7528.0,-1.98,-0.24,10.31
7541.0,-1.77,-0.33,9.94
7554.0,-0.92,-0.52,10.08
7567.0,-0.13,-0.28,9.89
7580.0,0.58,0.4,9.14
7593.0,1.22,1.07,8.52
7606.0,1.83,0.88,9.44
7619.0,1.93,0.47,10.5
7631.0,1.7,0.09,11.07
7644.0,1.21,-0.23,11.28
7657.0,0.76,-0.54,11.27
7670.0,0.57,-0.82,11.11
7683.0,0.52,-0.84,10.65
7696.0,0.7,-0.34,9.9
7708.0,0.94,0.29,8.95
7721.0,1.06,0.87,8.16
7734.0,1.0,1.36,7.48
7747.0,0.67,1.43,7.25
7760.0,0.01,0.79,7.81
7773.0,-0.58,0.0,8.51
7786.0,-1.19,-0.68,9.13
7798.0,-1.51,-1.1,9.14
7811.0,-1.29,-1.09,8.85
7824.0,-0.52,-0.76,8.8
7837.0,0.09,-0.56,9.16
7850.0,0.18,-0.75,9.35
7863.0,-0.16,-1.19,9.52
7876.0,-1.07,-1.88,9.69
7889.0,-1.51,-2.57,10.18
7901.0,-1.57,-2.79,9.99
7914.0,-1.13,-2.57,9.65
7927.0,-0.48,-2.28,9.52
7940.0,0.25,-2.09,9.69
7953.0,0.51,-2.27,10.47
7966.0,0.18,-2.94,11.61
7979.0,-0.66,-3.34,10.98
7991.0,-1.25,-3.41,10.17
8004.0,-1.48,-3.21,9.56
8017.0,-1.21,-2.96,9.31
8030.0,-0.84,-2.77,9.42
8043.0,-0.7,-2.63,9.31
8056.0,-0.77,-2.67,9.35
8069.0,-0.85,-2.92,9.58
8082.0,-0.89,-3.04,9.75
8094.0,-0.94,-2.98,9.62
8107.0,-0.99,-2.8,9.27
8120.0,-0.9,-2.48,8.94
8133.0,-0.8,-2.25,8.86
8146.0,-0.73,-2.1,8.75
8159.0,-0.68,-2.06,8.55
8172.0,-0.61,-2.28,8.95
8185.0,-0.59,-2.64,9.56
8197.0,-0.82,-2.87,9.83
8210.0,-0.72,-3.17,9.96
8223.0,-0.58,-3.19,10.0
8236.0,-0.24,-3.17,10.12
8249.0,-0.04,-3.06,10.17
8262.0,-0.13,-2.78,9.68
8275.0,-0.5,-2.66,9.31
8288.0,-0.87,-2.86,9.54
8300.0,-1.01,-3.06,9.65
8313.0,-0.78,-2.83,9.58
8326.0,-0.51,-2.67,9.97
8339.0,-0.19,-2.44,10.04
8352.0,-0.05,-2.14,9.86
8365.0,-0.24,-1.91,9.64
8378.0,-0.54,-1.73,9.31
8391.0,-0.89,-1.62,9.31
8403.0,-1.35,-1.63,9.25
8416.0,-1.45,-1.45,8.85
8429.0,-1.32,-1.08,8.71
8442.0,-0.82,-0.85,8.79
8455.0,-0.09,-0.46,9.17
8468.0,0.27,0.14,9.28
8481.0,0.57,0.72,9.2
8493.0,0.42,0.94,9.61
8506.0,0.08,0.9,10.21
8519.0,-0.16,0.85,10.51
8532.0,-0.47,0.79,11.57
8545.0,-1.06,0.64,11.99
8558.0,-1.61,0.64,11.89
8571.0,-1.68,0.73,12.11
8583.0,-1.17,0.94,12.4
8596.0,-0.63,1.46,12.71
8609.0,-0.39,1.92,12.62
8622.0,-0.53,2.0,12.41
8635.0,-0.94,2.02,12.02
8648.0,-1.26,2.07,11.54
8661.0,-1.35,2.06,11.32
8673.0,-1.31,2.19,11.05
8686.0,-1.51,1.95,11.04
8699.0,-1.8,1.5,10.87
8712.0,-1.97,1.22,10.43
8725.0,-1.98,1.25,10.08
8738.0,-1.92,1.29,9.8
8751.0,-1.93,1.29,9.54
8763.0,-2.06,1.19,9.36
8776.0,-2.15,0.94,9.56
8789.0,-2.16,0.62,9.89
8802.0,-2.04,0.15,10.48
8815.0,-1.73,-0.26,10.93
8828.0,-1.29,-0.27,11.23
8841.0,-0.8,-0.28,11.73
8854.0,-0.7,-0.61,12.42
8866.0,-0.97,-1.07,12.32
8879.0,-1.23,-1.24,11.76
8892.0,-1.38,-0.95,11.01
8905.0,-1.25,-0.49,9.88
8918.0,-0.67,0.17,8.6
8931.0,0.21,1.05,7.84
8944.0,1.29,1.46,8.09
8956.0,1.96,1.51,9.08
8969.0,1.8,0.96,10.12
8982.0,0.99,0.01,10.65
8995.0,0.15,-0.91,10.58
9008.0,-0.34,-1.04,9.7
9021.0,-0.29,-0.48,8.89
9034.0,-0.11,0.03,8.9
9046.0,-0.07,-0.16,9.75
9059.0,-0.52,-1.28,11.18
9072.0,-1.05,-2.31,11.93
9085.0,-1.58,-2.79,11.8
9098.0,-1.78,-2.51,10.49
9111.0,-1.15,-1.56,8.82
9124.0,-0.21,-0.36,8.34
9137.0,0.12,-0.11,9.18
9149.0,-0.6,-0.87,9.8
9162.0,-1.63,-1.78,9.74
9175.0,-2.31,-2.09,9.09
9188.0,-2.41,-2.04,8.53
9201.0,-1.69,-1.76,8.14
9214.0,-0.65,-1.1,7.97
9227.0,0.09,-0.71,8.02
9240.0,0.49,-0.53,8.08
9252.0,0.5,-0.87,8.51
9265.0,-0.16,-1.79,9.37
9278.0,-0.82,-2.87,10.12
9291.0,-1.51,-3.31,10.06
9304.0,-1.58,-3.47,10.11
9317.0,-1.25,-3.21,9.59
9330.0,-0.76,-2.8,9.35
9343.0,-0.37,-2.54,9.46
9355.0,-0.39,-2.84,9.87
9368.0,-0.75,-3.38,10.34
9381.0,-1.28,-3.97,10.68
9394.0,-1.68,-4.3,10.57
9407.0,-2.01,-4.15,10.19
9420.0,-1.9,-3.56,9.41
9433.0,-1.61,-3.09,9.19
9445.0,-1.4,-2.67,9.08
9458.0,-1.27,-2.49,9.09
9471.0,-1.27,-2.48,9.18
9484.0,-1.32,-2.58,9.34
9497.0,-1.28,-2.59,9.18
9510.0,-1.12,-2.54,9.02
9523.0,-0.71,-2.77,9.38
9536.0,-0.52,-3.32,10.15
9549.0,-0.8,-3.84,10.46
9561.0,-1.28,-3.81,9.88
9574.0,-1.64,-3.66,9.41
9587.0,-1.77,-3.35,8.61
9600.0,-1.56,-2.95,7.95
9613.0,-1.2,-2.7,8.02
9626.0,-0.88,-2.57,8.28
9639.0,-0.47,-2.6,8.93
9652.0,-0.54,-2.61,9.14
9664.0,-0.7,-2.57,9.15
9677.0,-1.05,-2.69,9.38
9690.0,-1.35,-2.7,9.01
9703.0,-1.47,-2.51,8.83
9716.0,-1.12,-2.17,8.93
9729.0,-0.51,-1.79,9.32
9742.0,-0.18,-1.48,9.73
9755.0,-0.44,-1.16,9.54
9767.0,-0.7,-1.01,9.08
9780.0,-0.91,-0.61,8.74
9793.0,-0.27,-0.42,9.23
9806.0,0.69,-0.15,9.97
9819.0,1.63,0.35,10.21
9832.0,2.08,0.63,10.62
9845.0,1.87,0.22,11.78
9857.0,1.33,-0.37,12.38
9870.0,0.41,-0.76,12.49
9883.0,-0.54,-0.87,11.93
9896.0,-1.31,-0.88,11.57
9909.0,-1.81,-0.67,11.18
9922.0,-1.98,-0.49,11.23
9935.0,-1.69,-0.21,11.38
9947.0,-1.11,0.11,11.87
9960.0,-0.7,0.23,12.68
9973.0,-0.58,0.26,12.82
9986.0,-0.66,0.45,12.49
9999.0,-0.82,0.59,12.22
10012.0,-1.04,0.72,11.88
10025.0,-1.13,0.94,11.5
10037.0,-1.09,1.09,11.27
10050.0,-0.89,1.44,10.65
10063.0,-0.67,1.81,9.96
10076.0,-0.58,2.02,9.6
10089.0,-0.63,1.79,9.8
10102.0,-0.91,1.37,10.2
10115.0,-1.25,1.03,10.19
10127.0,-1.34,0.89,10.18
10140.0,-1.14,0.69,10.5
10153.0,-0.64,0.54,10.92
10166.0,-0.02,0.27,11.67
10179.0,0.33,0.04,12.14
10192.0,0.18,-0.29,12.28
10205.0,-0.49,-0.61,11.53
10218.0,-1.07,-0.84,10.73
10230.0,-1.22,-0.82,9.96
10243.0,-0.8,-0.61,9.55
10256.0,0.03,-0.04,9.25
10269.0,0.89,0.55,8.93
10282.0,1.45,0.88,9.0
10295.0,1.33,0.72,9.65
10308.0,0.64,-0.23,10.41
10320.0,-0.33,-1.47,10.82
10333.0,-1.27,-1.94,10.1
10346.0,-1.52,-1.7,8.79
10359.0,-0.94,-1.07,8.02
10372.0,-0.0,-0.33,7.89
10385.0,0.92,0.47,7.3
10398.0,1.4,0.7,7.69
10410.0,1.11,0.03,8.82
10423.0,0.37,-0.99,9.18
10436.0,-0.63,-1.73,9.16
10449.0,-1.35,-1.81,8.49
10462.0,-1.43,-1.48,7.74
10475.0,-0.89,-1.2,7.74
10488.0,0.0,-1.21,8.45
10500.0,0.57,-1.23,9.11
10513.0,0.62,-1.26,9.27
10526.0,0.25,-1.83,9.66
10539.0,-0.43,-2.7,10.23
10552.0,-0.93,-3.56,10.89
10565.0,-1.2,-4.02,11.23
10578.0,-1.38,-4.05,10.91
10591.0,-1.17,-3.66,10.32
10603.0,-0.44,-3.12,9.84
10616.0,0.56,-2.61,9.79
10629.0,1.11,-2.25,9.72
10642.0,1.03,-2.21,9.6
10655.0,0.45,-2.72,9.91
10668.0,-0.34,-3.22,10.08
10681.0,-1.01,-3.52,10.06
10693.0,-1.29,-3.48,9.94
10706.0,-1.07,-3.2,9.71
10719.0,-0.5,-2.7,9.5
10732.0,0.04,-2.26,9.37
10745.0,0.2,-2.17,9.5
10758.0,-0.06,-2.39,9.76
10771.0,-0.64,-2.86,10.04
10784.0,-1.24,-3.45,10.49
10796.0,-1.53,-3.91,10.9
10809.0,-1.81,-3.97,10.77
10822.0,-1.95,-3.58,9.91
10835.0,-1.77,-3.02,9.13
10848.0,-1.33,-2.55,8.91
10861.0,-0.78,-2.31,9.04
10874.0,-0.27,-2.25,9.3
10887.0,0.23,-2.36,9.5
10899.0,0.3,-2.35,9.43
10912.0,0.16,-2.44,9.38
10925.0,-0.26,-2.4,8.86
10938.0,-0.7,-2.46,8.77
10951.0,-0.75,-2.7,9.3
10964.0,-0.45,-2.8,9.76
10977.0,-0.3,-2.83,10.33
10990.0,-0.46,-2.84,10.35
11002.0,-0.74,-2.84,10.25
11015.0,-0.79,-2.75,9.98
11028.0,-0.73,-2.34,9.44
11041.0,-0.71,-1.82,8.87
11054.0,-0.61,-1.46,8.68
11067.0,-0.54,-1.27,9.13
11080.0,-0.78,-1.17,9.13
11093.0,-1.18,-1.36,9.01
11105.0,-1.64,-1.67,8.93
11118.0,-1.8,-1.57,8.34
11131.0,-1.32,-1.14,7.84
11144.0,-0.37,-0.72,8.07
11157.0,0.29,-0.59,8.98
11170.0,0.5,-0.49,9.59
11183.0,0.17,-0.26,9.96
11195.0,-0.33,0.06,9.77
11208.0,-0.75,0.39,9.8
11221.0,-0.86,0.7,10.15
11234.0,-0.63,1.17,10.67
11247.0,-0.27,1.47,11.37
11260.0,-0.61,2.05,11.69
11273.0,-0.83,2.26,12.1
11285.0,-0.68,2.32,12.43
11298.0,-0.72,2.52,12.77
11311.0,-0.63,2.45,13.68
11324.0,-0.79,2.13,14.34
11337.0,-1.27,1.68,14.53
11350.0,-1.87,1.6,13.82
11363.0,-2.26,1.8,12.57
11375.0,-2.01,1.95,11.91
11388.0,-1.4,1.83,12.28
11401.0,-1.18,1.5,12.25
11414.0,-1.26,1.2,11.58
11427.0,-1.16,1.07,10.78
11440.0,-0.95,1.13,10.03
11453.0,-0.56,1.35,9.06
11466.0,0.12,1.47,8.47
11478.0,0.72,1.52,9.0
11491.0,1.16,1.18,9.99
11504.0,0.91,0.42,11.05
11517.0,0.38,-0.29,11.43
11530.0,-0.43,-0.71,10.93
11543.0,-1.04,-0.67,9.86
11555.0,-0.99,-0.2,8.82
11568.0,-0.15,0.76,7.61
11581.0,0.96,1.27,8.1
11594.0,1.72,1.42,9.1
11607.0,2.12,0.9,10.56
11620.0,1.83,-0.07,11.8
11633.0,1.01,-0.99,12.11
11645.0,0.01,-1.61,11.67
11658.0,-0.36,-1.67,10.49
11671.0,-0.06,-1.01,9.02
11684.0,0.93,-0.04,8.39
11697.0,1.71,0.41,9.07
11710.0,1.81,-0.03,10.59
11723.0,1.16,-1.22,11.5
11735.0,-0.44,-2.33,11.61
11748.0,-1.65,-2.9,10.87
11761.0,-1.9,-2.9,9.87
11774.0,-1.28,-2.13,8.69
11787.0,-0.3,-1.2,8.15
11800.0,0.34,-0.66,8.0
11813.0,0.69,-0.79,8.44
11826.0,0.34,-1.58,9.64
11838.0,-0.3,-2.38,10.04
11851.0,-1.06,-3.0,10.3
11864.0,-1.42,-3.33,10.25
11877.0,-1.32,-3.25,9.97
11890.0,-0.78,-2.78,9.49
11903.0,0.06,-2.19,9.28
11916.0,0.62,-1.78,9.16
11929.0,0.9,-1.65,9.04
11941.0,0.79,-1.84,9.36
11954.0,0.43,-2.05,9.2
11967.0,0.11,-2.33,9.24
11980.0,0.01,-2.59,9.61
11993.0,0.08,-2.71,9.67
12006.0,0.21,-2.59,9.47
12019.0,0.61,-2.43,9.46
12031.0,0.81,-2.42,9.74
12044.0,0.67,-2.51,9.76
12057.0,0.19,-2.64,9.59
12070.0,-0.21,-2.65,9.16
12083.0,-0.45,-2.56,8.91
12096.0,-0.47,-2.34,8.69
12109.0,-0.22,-2.26,8.88
12121.0,0.04,-2.24,9.27
12134.0,0.11,-2.25,9.49
12147.0,-0.07,-2.37,10.0
12160.0,-0.45,-2.63,10.18
12173.0,-0.7,-2.77,10.13
12186.0,-0.62,-2.81,10.07
12199.0,-0.17,-2.6,10.04
12212.0,0.11,-2.47,10.09
12224.0,-0.06,-2.3,9.76
12237.0,-0.48,-2.31,9.29
12250.0,-0.74,-2.39,9.16
12263.0,-0.55,-2.43,9.19
12276.0,-0.06,-2.13,9.01
12289.0,0.56,-1.6,9.02
12302.0,1.16,-1.27,9.25
12314.0,1.48,-1.45,9.93
12327.0,1.52,-1.84,10.86
12340.0,1.19,-1.97,10.8
12353.0,0.71,-1.86,10.02
12366.0,0.22,-1.73,9.26
12379.0,-0.35,-1.4,8.38
12392.0,-0.55,-1.3,8.41
12405.0,-0.31,-1.42,9.5
12417.0,-0.07,-1.26,9.69
12430.0,0.28,-0.85,9.36
12443.0,0.37,-0.61,9.65
12456.0,0.16,-0.91,10.16
12469.0,-0.14,-1.22,10.49
12482.0,-0.47,-1.35,10.49
12495.0,-0.76,-1.26,10.13
12507.0,-0.56,-0.93,9.81
12520.0,0.02,-0.43,9.94
12533.0,0.54,-0.18,10.59
12546.0,0.51,-0.06,11.19
12559.0,0.07,0.0,11.41
12572.0,-0.59,0.04,11.55
12585.0,-1.18,0.05,11.57
12597.0,-1.56,0.21,11.45
12610.0,-1.78,0.58,11.25
12623.0,-1.77,0.91,11.3
12636.0,-1.78,1.23,11.52
12649.0,-1.77,1.4,11.73
12662.0,-2.01,1.63,11.48
12675.0,-1.86,1.64,11.67
12687.0,-1.35,1.72,12.01
12700.0,-0.91,1.78,12.26
12713.0,-0.46,1.93,12.06
12726.0,-0.14,1.99,11.83
12739.0,-0.24,1.97,11.41
12752.0,-0.57,1.76,11.14
12765.0,-1.01,1.29,11.22
12777.0,-1.29,0.75,11.62
12790.0,-1.54,0.35,11.99
12803.0,-1.72,0.23,11.96
12816.0,-1.96,0.15,11.9
12829.0,-2.0,0.17,11.81
12842.0,-2.04,0.35,11.46
12855.0,-1.92,0.61,10.96
