timestamp,accX,accY,accZ
2.0,1.0,-2.14,9.83
15.0,1.08,-1.65,7.96
28.0,1.32,-2.02,9.73
41.0,1.28,-1.98,9.79
54.0,0.96,-1.83,9.7
67.0,0.71,-1.65,9.83
79.0,0.63,-1.45,9.82
92.0,0.69,-1.2,9.59
105.0,0.91,-0.99,9.42
118.0,1.18,-0.89,9.58
131.0,1.23,-0.96,9.93
144.0,0.99,-0.86,9.96
157.0,0.51,-0.8,9.63
169.0,0.06,-0.82,9.22
182.0,0.11,-0.82,9.32
195.0,0.52,-0.64,9.49
208.0,0.85,-0.82,10.69
221.0,1.12,-1.32,12.12
234.0,1.45,-2.08,13.28
247.0,1.32,-1.89,12.9
259.0,1.22,-1.15,11.55
272.0,1.28,-0.57,10.54
285.0,1.07,-0.06,10.02
298.0,0.9,0.33,9.63
311.0,0.45,0.57,9.38
324.0,-0.19,0.59,9.16
336.0,-1.03,0.45,8.92
349.0,-1.58,0.51,8.21
362.0,-1.46,0.91,7.72
375.0,-0.76,1.18,8.26
388.0,0.19,1.28,9.34
401.0,0.9,1.45,10.16
414.0,1.2,1.4,11.11
426.0,1.21,1.03,11.8
439.0,0.82,0.91,11.46
452.0,0.43,1.08,10.9
465.0,0.35,1.23,10.67
478.0,0.58,1.25,10.77
491.0,0.94,1.24,10.91
503.0,1.38,1.26,10.84
516.0,1.78,1.32,10.82
529.0,1.86,1.18,11.09
542.0,1.44,0.76,11.51
555.0,0.99,0.13,11.85
568.0,0.37,-0.26,11.61
581.0,-0.06,-0.04,10.56
593.0,-0.06,0.05,10.1
606.0,0.25,-0.15,10.45
619.0,0.89,-0.54,11.26
632.0,1.48,-0.85,11.58
645.0,1.82,-0.83,11.49
658.0,2.11,-0.55,11.1
671.0,2.27,-0.23,10.27
683.0,2.14,-0.11,9.78
696.0,1.84,-0.44,9.94
709.0,1.41,-0.66,9.48
722.0,0.75,-1.01,9.65
735.0,0.44,-1.48,10.24
748.0,0.56,-1.75,10.41
761.0,0.98,-1.73,10.28
773.0,1.51,-1.3,9.92
786.0,2.02,-0.82,9.58
799.0,2.1,-0.9,9.73
812.0,1.5,-1.37,9.98
825.0,0.6,-1.93,10.17
838.0,-0.44,-2.27,9.59
851.0,-1.19,-2.44,9.34
864.0,-0.8,-2.06,8.54
876.0,0.24,-1.12,7.94
889.0,1.36,-0.54,8.12
902.0,1.94,-0.73,8.91
915.0,1.44,-1.58,10.04
928.0,0.4,-2.55,10.38
941.0,-0.64,-3.3,10.53
954.0,-1.41,-3.63,10.47
966.0,-1.44,-3.58,10.31
979.0,-0.85,-3.08,9.56
992.0,0.24,-2.67,9.38
1005.0,1.01,-2.35,9.57
1018.0,1.23,-2.36,9.88
1031.0,1.01,-2.71,10.22
1044.0,0.41,-3.16,10.32
1056.0,0.13,-3.34,10.06
1069.0,0.26,-3.14,9.86
1082.0,0.53,-2.84,9.63
1095.0,0.85,-2.61,9.43
1108.0,1.03,-2.58,9.42
1121.0,1.02,-2.72,9.52
1134.0,0.68,-2.95,9.48
1146.0,0.48,-3.22,9.59
1159.0,0.43,-3.38,9.99
1172.0,0.51,-3.56,10.38
1185.0,0.63,-3.47,10.46
1198.0,0.7,-3.13,10.04
1211.0,0.64,-2.53,9.3
1224.0,0.71,-1.99,8.7
1236.0,0.81,-1.72,8.73
1249.0,0.93,-1.72,9.03
1262.0,0.93,-1.73,9.29
1275.0,0.87,-1.88,9.63
1288.0,0.74,-2.05,9.83
1301.0,0.51,-2.23,10.0
1314.0,0.35,-2.21,9.76
1326.0,0.39,-2.07,9.38
1339.0,0.6,-1.83,9.17
1352.0,0.83,-1.6,9.12
1365.0,1.02,-1.66,9.37
1378.0,0.82,-1.81,9.54
1391.0,0.35,-1.89,9.5
1404.0,0.09,-1.96,9.61
1417.0,0.16,-1.84,9.66
1429.0,0.33,-1.68,9.86
1442.0,0.65,-1.94,10.77
1455.0,0.77,-2.22,11.43
1468.0,0.64,-2.09,11.13
1481.0,0.47,-1.75,10.17
1494.0,0.6,-1.63,9.8
1507.0,0.61,-1.5,9.57
1519.0,0.33,-1.36,9.01
1532.0,0.09,-1.17,8.66
1545.0,0.17,-1.04,8.82
1558.0,0.68,-1.01,9.07
1571.0,1.02,-1.18,10.11
1584.0,1.33,-1.2,10.46
1597.0,1.43,-0.96,10.16
1609.0,1.33,-0.83,9.76
1622.0,1.24,-0.75,9.57
1635.0,1.12,-0.67,9.75
1648.0,1.16,-0.64,9.96
1661.0,1.16,-0.55,10.23
1674.0,0.92,-0.48,10.49
1687.0,0.58,-0.25,10.11
1699.0,0.42,0.16,9.52
1712.0,0.48,0.62,9.15
1725.0,0.69,0.84,9.73
1738.0,0.83,0.74,10.52
1751.0,0.75,0.56,11.28
1764.0,0.52,0.69,11.17
1776.0,0.25,0.99,10.97
1789.0,-0.07,1.17,11.02
1802.0,-0.39,1.0,11.38
1815.0,-0.72,0.78,11.64
1828.0,-0.84,0.68,11.79
1841.0,-0.73,0.77,11.88
1854.0,-0.52,0.9,11.77
1866.0,-0.31,1.13,11.23
1879.0,-0.13,1.36,10.49
1892.0,0.11,1.87,9.42
1905.0,0.55,2.57,8.56
1918.0,1.33,3.19,8.09
1931.0,2.01,3.51,8.57
1944.0,2.31,3.11,10.01
1956.0,1.9,2.09,11.19
1969.0,0.94,0.92,11.61
1982.0,-0.06,0.05,11.39
1995.0,-0.51,-0.2,10.58
2008.0,-0.26,0.34,9.47
2021.0,0.55,1.06,9.55
2033.0,1.14,1.28,10.15
2046.0,1.29,1.07,10.42
2059.0,1.02,0.75,10.34
2072.0,0.75,0.77,9.81
2085.0,0.72,1.13,9.11
2098.0,1.29,1.71,8.43
2111.0,2.06,2.6,8.5
2123.0,2.54,2.02,10.78
2136.0,2.39,0.75,12.28
2149.0,1.07,-0.37,12.29
2162.0,0.26,-0.99,11.68
2175.0,-0.27,-1.09,10.63
2188.0,-0.35,-0.66,9.75
2201.0,0.04,-0.45,9.32
2213.0,0.49,-0.51,9.67
2226.0,0.32,-0.6,9.77
2239.0,-0.09,-0.88,9.53
2252.0,-0.1,-1.11,9.37
2265.0,0.01,-1.2,9.46
2278.0,0.02,-1.42,9.71
2291.0,0.02,-1.82,9.75
2303.0,0.44,-1.83,9.44
2316.0,1.08,-1.23,9.03
2329.0,1.1,-0.96,8.93
2342.0,0.73,-1.27,9.16
2355.0,0.05,-1.91,9.78
2368.0,-0.3,-2.66,10.3
2381.0,-0.58,-2.96,10.29
2393.0,-0.59,-2.93,9.93
2406.0,-0.2,-2.59,9.59
2419.0,0.22,-2.33,9.71
2432.0,0.12,-2.37,9.96
2445.0,-0.11,-2.55,9.89
2458.0,-0.23,-2.56,9.66
2471.0,-0.14,-2.41,9.43
2484.0,0.15,-2.17,9.35
2496.0,0.45,-2.09,9.62
2509.0,0.57,-2.12,9.66
2522.0,0.54,-2.15,9.71
2535.0,0.38,-2.22,9.82
2548.0,0.12,-2.44,9.77
2561.0,0.07,-2.73,9.95
2574.0,0.07,-2.94,10.15
2586.0,0.02,-2.96,10.18
2599.0,0.05,-2.86,10.24
2612.0,0.21,-2.79,10.17
2625.0,0.27,-2.85,10.38
2638.0,0.32,-2.98,10.69
2651.0,0.27,-2.97,10.78
2664.0,0.23,-2.86,10.79
2676.0,0.21,-2.61,10.69
2689.0,0.12,-2.5,10.65
2702.0,-0.04,-2.48,10.31
2715.0,-0.12,-2.23,9.82
2728.0,-0.15,-1.98,9.3
2741.0,-0.29,-1.86,9.14
2754.0,-0.35,-1.98,9.21
2767.0,-0.44,-2.28,9.7
2779.0,-0.56,-2.51,9.94
2792.0,-0.59,-2.47,9.63
2805.0,-0.45,-2.29,9.38
2818.0,-0.33,-2.15,9.39
2831.0,-0.31,-2.05,9.61
2844.0,-0.39,-1.94,9.59
2857.0,-0.52,-1.76,9.33
2869.0,-0.51,-1.79,9.28
2882.0,-0.47,-1.87,9.45
2895.0,-0.41,-1.73,9.4
2908.0,-0.22,-1.41,9.24
2921.0,0.15,-1.19,9.25
2934.0,0.54,-1.11,9.24
2947.0,0.98,-1.11,9.15
2960.0,1.34,-1.22,9.31
2972.0,1.13,-1.61,9.83
2985.0,0.5,-1.77,9.8
2998.0,0.09,-1.88,9.68
3011.0,-0.11,-2.04,9.63
3024.0,0.05,-1.97,9.34
3037.0,0.52,-1.63,9.18
3050.0,1.0,-1.32,9.38
3062.0,1.31,-1.26,9.79
3075.0,1.07,-1.37,10.34
3088.0,0.38,-1.31,10.18
3101.0,-0.67,-1.27,9.62
3114.0,-1.43,-1.4,9.3
3127.0,-1.52,-1.37,9.68
3140.0,-0.94,-1.02,10.33
3153.0,-0.13,-0.55,11.14
3165.0,0.37,-0.04,11.63
3178.0,0.47,0.37,11.76
3191.0,0.42,0.71,11.66
3204.0,0.18,0.99,11.66
3217.0,0.05,1.35,11.39
3230.0,-0.07,1.69,11.17
3242.0,-0.11,1.97,10.75
3255.0,-0.2,2.32,10.42
3268.0,-0.17,2.48,10.56
3281.0,-0.09,2.42,11.12
3294.0,-0.17,2.32,11.4
3307.0,-0.43,2.15,11.5
3320.0,-0.66,1.94,11.42
3333.0,-0.72,1.77,11.48
3345.0,-0.79,1.56,11.31
3358.0,-0.88,1.49,10.69
3371.0,-0.87,1.62,9.95
3384.0,-0.78,1.82,9.39
3397.0,-0.66,1.74,9.26
3410.0,-0.54,1.46,9.28
3423.0,-0.28,1.22,9.4
3435.0,-0.08,0.77,10.19
3448.0,-0.07,0.24,10.72
3461.0,-0.31,-0.18,10.63
3474.0,-0.44,-0.37,10.2
3487.0,-0.21,-0.19,9.91
3500.0,0.26,-0.04,10.08
3513.0,0.63,0.11,10.03
3525.0,0.59,0.27,9.94
3538.0,0.42,0.11,9.9
3551.0,0.32,-0.23,10.3
3564.0,0.27,-0.6,10.5
3577.0,0.3,-0.8,10.49
3590.0,0.62,-0.79,10.03
3603.0,1.11,-0.53,9.96
3615.0,1.64,-0.08,9.82
3628.0,1.78,0.18,9.57
3641.0,1.7,0.1,9.79
3654.0,1.26,-0.33,10.13
3667.0,0.72,-0.87,10.27
3680.0,0.41,-1.24,10.18
3692.0,0.45,-1.32,9.61
3705.0,1.0,-1.03,9.15
3718.0,1.79,-0.59,9.18
3731.0,1.94,-0.85,9.9
3744.0,1.3,-1.49,10.37
3757.0,0.23,-2.1,10.18
3770.0,-0.71,-2.49,9.72
3783.0,-0.96,-2.64,9.15
3795.0,-0.33,-2.35,8.96
3808.0,0.49,-2.28,9.51
3821.0,0.77,-2.52,9.97
3834.0,0.61,-3.11,10.32
3847.0,0.18,-3.64,10.94
3860.0,-0.45,-4.06,11.26
3873.0,-1.03,-4.35,11.22
3885.0,-1.36,-4.19,10.66
3898.0,-1.15,-3.72,9.78
3911.0,-0.46,-3.14,9.22
3924.0,0.39,-2.58,9.08
3937.0,0.93,-2.23,9.2
3950.0,1.08,-2.22,9.57
3963.0,0.71,-2.55,10.12
3975.0,-0.12,-2.91,9.95
3988.0,-0.73,-3.03,9.47
4001.0,-0.77,-3.0,9.29
4014.0,-0.37,-2.83,9.55
4027.0,0.06,-2.72,9.79
4040.0,0.21,-2.42,9.49
4053.0,0.17,-2.14,8.99
4066.0,0.15,-2.01,8.76
4078.0,0.2,-2.02,8.81
4091.0,0.32,-2.04,8.99
4104.0,0.4,-2.05,9.07
4117.0,0.47,-1.9,8.9
4130.0,0.52,-1.7,8.82
4143.0,0.53,-1.66,9.01
4156.0,0.57,-1.8,9.3
4168.0,0.61,-1.89,9.59
4181.0,0.67,-2.0,9.84
4194.0,0.65,-2.11,9.99
4207.0,0.65,-2.19,10.08
4220.0,0.45,-2.29,10.21
4233.0,0.17,-2.42,10.22
4246.0,-0.11,-2.56,10.18
4258.0,-0.16,-2.6,10.02
4271.0,-0.03,-2.5,9.83
4284.0,0.29,-2.26,9.77
4297.0,0.68,-1.95,9.56
4310.0,0.96,-1.7,9.56
4323.0,0.87,-1.75,9.78
4336.0,0.47,-1.93,9.54
4349.0,0.24,-1.85,9.1
4361.0,0.3,-1.9,9.54
4374.0,0.4,-2.21,10.32
4387.0,0.4,-2.49,10.71
4400.0,0.46,-2.33,10.44
4413.0,0.65,-1.92,10.0
4426.0,0.96,-1.52,9.85
4439.0,0.9,-1.56,10.18
4451.0,0.42,-1.69,9.96
4464.0,-0.08,-1.75,9.64
4477.0,-0.22,-1.7,9.39
4490.0,-0.04,-1.49,9.43
4503.0,0.35,-1.09,9.63
4516.0,1.0,-0.77,9.65
4529.0,1.45,-0.5,10.17
4541.0,1.46,-0.61,10.92
4554.0,0.83,-0.89,11.14
4567.0,0.09,-0.97,10.83
4580.0,-0.47,-0.74,10.0
4593.0,-0.61,-0.32,9.09
4606.0,-0.37,0.19,8.73
4619.0,0.13,0.33,9.44
4631.0,0.31,0.44,9.93
4644.0,0.05,0.53,10.04
4657.0,-0.24,0.49,9.86
4670.0,-0.58,0.36,10.23
4683.0,-0.86,0.31,10.38
4696.0,-0.96,0.37,10.35
4709.0,-0.85,0.45,10.7
4721.0,-0.48,0.65,11.03
4734.0,0.01,0.94,11.4
4747.0,0.44,1.17,11.72
4760.0,0.75,1.32,11.92
4773.0,0.76,1.33,12.04
4786.0,0.48,1.23,11.91
4798.0,0.15,1.14,11.56
4811.0,-0.07,1.15,11.19
4824.0,-0.12,1.23,10.67
4837.0,-0.09,1.43,10.05
4850.0,0.1,1.63,9.46
4863.0,0.36,1.85,9.03
4876.0,0.53,2.12,8.71
4888.0,0.84,2.14,8.77
4901.0,0.91,1.77,9.55
4914.0,0.59,1.11,10.64
4927.0,-0.11,0.21,11.31
4940.0,-0.88,-0.7,11.53
4953.0,-1.25,-1.18,11.13
4966.0,-1.13,-1.13,10.39
4978.0,-0.57,-0.56,9.51
4991.0,0.29,0.12,9.22
5004.0,1.04,0.41,9.3
5017.0,1.47,0.28,9.95
5030.0,1.45,-0.61,11.65
5043.0,0.78,-1.45,12.19
5056.0,0.09,-1.98,11.62
5068.0,-0.21,-1.95,10.59
5081.0,0.08,-1.6,9.83
5094.0,1.06,-0.69,8.95
5107.0,1.97,0.28,8.55
5120.0,2.39,0.45,9.49
5133.0,2.11,0.06,9.92
5146.0,1.29,-0.45,9.55
5158.0,0.68,-0.99,9.55
5171.0,0.43,-1.13,9.37
5184.0,0.56,-1.04,8.97
5197.0,0.95,-0.83,8.68
5210.0,1.22,-0.75,8.69
5223.0,1.34,-0.93,8.26
5236.0,1.45,-1.26,8.76
5248.0,1.0,-1.86,10.24
5261.0,0.35,-2.85,11.13
5274.0,-0.92,-3.91,12.03
5287.0,-2.03,-4.43,12.14
5300.0,-2.55,-4.37,11.52
5313.0,-2.03,-3.71,10.61
5326.0,-0.87,-2.62,9.76
5338.0,0.33,-1.68,8.98
5351.0,1.2,-1.22,8.84
5364.0,1.5,-1.04,8.96
5377.0,1.33,-1.23,9.0
5390.0,0.75,-1.67,9.09
5403.0,0.08,-2.23,9.28
5416.0,-0.19,-2.77,9.8
5428.0,-0.17,-3.13,10.16
5441.0,0.05,-2.99,9.76
5454.0,0.47,-2.69,9.22
5467.0,1.05,-2.35,8.94
5480.0,1.45,-2.36,9.36
5493.0,1.22,-2.81,10.11
5506.0,0.37,-3.35,10.14
5519.0,-0.24,-3.67,9.81
5531.0,-0.38,-3.7,9.62
5544.0,-0.22,-3.67,9.61
5557.0,0.0,-3.74,9.78
5570.0,0.28,-3.73,10.03
5583.0,0.28,-3.83,10.14
5596.0,-0.04,-4.04,10.03
5609.0,-0.38,-4.32,10.04
5621.0,-0.41,-4.49,10.09
5634.0,-0.34,-4.5,10.23
5647.0,-0.24,-4.36,10.18
5660.0,-0.24,-3.97,9.92
5673.0,-0.26,-3.38,9.38
5686.0,-0.35,-2.85,8.82
5699.0,-0.39,-2.5,8.5
5712.0,-0.31,-2.46,8.77
5724.0,-0.11,-2.74,9.59
5737.0,0.04,-2.9,10.15
5750.0,0.11,-2.89,10.37
5763.0,0.08,-2.72,10.1
5776.0,-0.05,-2.65,9.92
5789.0,-0.2,-2.56,9.74
5802.0,-0.32,-2.53,9.5
5815.0,-0.07,-2.49,9.27
5827.0,0.47,-2.64,9.84
5840.0,0.94,-2.84,10.47
5853.0,1.03,-2.83,10.43
5866.0,0.87,-2.73,9.97
5879.0,0.44,-2.59,9.59
5892.0,0.12,-2.38,9.09
5905.0,0.1,-2.35,9.08
5917.0,0.21,-2.52,9.56
5930.0,0.43,-2.44,9.52
5943.0,0.89,-2.24,9.38
5956.0,1.22,-1.95,9.23
5969.0,1.57,-1.52,8.89
5982.0,1.87,-1.2,9.11
5995.0,1.86,-1.12,9.45
6007.0,1.44,-1.2,9.8
6020.0,0.95,-1.17,9.57
6033.0,0.31,-1.06,8.78
6046.0,-0.43,-1.13,8.23
6059.0,-0.86,-1.34,8.39
6072.0,-0.74,-1.3,8.69
6085.0,-0.21,-1.06,9.15
6097.0,0.3,-0.82,9.52
6110.0,0.55,-0.72,9.82
6123.0,0.88,-0.73,10.2
6136.0,0.75,-0.86,10.79
6149.0,0.11,-0.75,10.03
6162.0,-0.57,-0.54,9.02
6175.0,-0.91,-0.31,8.35
6188.0,-1.0,-0.23,8.86
6200.0,-0.94,-0.15,9.27
6213.0,-0.89,-0.03,9.65
6226.0,-0.96,-0.06,10.23
6239.0,-1.29,-0.07,10.43
6252.0,-1.47,0.08,10.19
6265.0,-1.4,0.35,10.04
6278.0,-0.83,0.57,10.61
6290.0,-0.09,0.68,11.63
6303.0,0.27,0.81,12.43
6316.0,0.43,0.6,12.83
6329.0,-0.0,0.71,12.3
6342.0,-0.37,0.77,11.54
6355.0,-0.58,0.9,11.12
6368.0,-0.55,1.18,10.67
6380.0,-0.37,1.4,10.53
6393.0,-0.25,1.39,10.86
6406.0,-0.41,1.03,11.32
6419.0,-0.83,0.44,11.69
6432.0,-1.4,-0.31,12.27
6445.0,-1.91,-0.88,12.36
6458.0,-2.07,-1.14,12.05
6470.0,-1.75,-0.86,11.04
6483.0,-1.16,-0.29,10.16
6496.0,-0.29,0.02,10.09
6509.0,0.3,0.15,10.18
6522.0,0.83,0.55,9.73
6535.0,1.38,1.06,9.67
6548.0,1.81,1.23,9.93
6560.0,1.93,1.03,9.99
6573.0,1.91,0.92,9.74
6586.0,1.69,0.78,9.64
6599.0,1.18,0.65,9.46
6612.0,0.68,0.32,9.6
6625.0,0.1,-0.23,10.42
6638.0,-0.44,-1.05,11.51
6650.0,-0.71,-2.07,12.6
6663.0,-0.84,-2.83,13.16
6676.0,-0.88,-2.94,12.55
6689.0,-0.3,-2.15,11.17
6702.0,0.64,-1.02,10.52
6715.0,1.22,-0.29,10.21
6728.0,1.3,-0.18,10.17
6740.0,1.01,-0.45,10.2
6753.0,0.71,-0.79,10.07
6766.0,0.76,-0.8,9.71
6779.0,1.06,-0.43,9.0
6792.0,1.49,-0.02,8.35
6805.0,2.01,0.34,7.96
6818.0,2.37,0.74,7.81
6830.0,2.78,0.82,7.69
6843.0,2.41,-0.01,8.81
6856.0,1.41,-1.73,10.48
6869.0,0.28,-2.86,10.86
6882.0,-0.57,-3.33,10.52
6895.0,-0.87,-2.96,9.04
6908.0,-0.83,-2.32,7.94
6920.0,-0.36,-2.03,7.94
6933.0,0.19,-2.25,8.87
6946.0,0.54,-2.72,10.02
6959.0,0.58,-3.29,10.86
6972.0,0.28,-3.56,10.87
6985.0,-0.16,-3.49,10.25
6998.0,-0.3,-3.2,9.48
7011.0,-0.19,-2.78,8.91
7023.0,0.13,-2.31,8.4
7036.0,0.62,-2.08,8.3
7049.0,0.9,-2.27,8.97
7062.0,0.7,-2.88,9.58
7075.0,0.14,-3.31,9.67
7088.0,-0.37,-3.62,9.46
7101.0,-0.54,-3.74,9.03
7113.0,-0.32,-3.93,9.15
7126.0,-0.06,-4.07,9.55
7139.0,0.24,-4.09,9.8
7152.0,0.28,-4.16,10.43
7165.0,-0.01,-4.13,10.54
7178.0,-0.39,-4.0,10.06
7191.0,-0.44,-3.63,9.47
7204.0,-0.01,-3.08,8.95
7216.0,0.74,-2.65,8.88
7229.0,1.4,-2.22,9.17
7242.0,1.62,-1.85,9.26
7255.0,1.6,-1.68,8.98
7268.0,1.03,-1.62,8.76
7281.0,0.77,-1.84,8.85
7294.0,1.15,-2.14,9.44
7306.0,1.83,-2.02,9.81
7319.0,2.54,-1.86,10.21
7332.0,3.13,-1.94,10.83
7345.0,3.26,-2.29,11.58
7358.0,2.86,-2.83,11.75
7371.0,2.13,-3.17,11.25
7384.0,1.27,-3.37,10.62
7396.0,0.69,-3.32,9.83
7409.0,0.3,-3.04,9.41
7422.0,0.37,-2.69,9.12
7435.0,0.74,-2.22,8.56
7448.0,0.98,-1.69,8.58
7461.0,0.96,-1.43,8.84
7474.0,0.86,-1.27,9.02
7486.0,0.65,-1.05,8.65
7499.0,0.54,-1.03,8.8
7512.0,0.64,-1.39,9.79
7525.0,0.64,-1.83,10.72
7538.0,0.62,-1.98,11.06
7551.0,0.68,-1.8,10.78
7564.0,0.95,-1.61,10.69
7576.0,1.19,-1.34,10.71
7589.0,1.36,-0.99,10.54
7602.0,1.45,-0.56,10.35
7615.0,1.37,-0.26,10.29
7628.0,0.99,0.07,9.9
7641.0,0.53,0.4,9.31
7654.0,0.33,0.82,8.89
7666.0,0.36,1.11,8.81
7679.0,0.34,1.33,9.13
7692.0,0.33,1.45,9.19
7705.0,0.17,1.54,9.28
7718.0,-0.07,1.62,9.69
7731.0,-0.27,1.56,9.94
7744.0,-0.43,1.58,10.27
7756.0,-0.57,1.57,10.71
7769.0,-0.67,1.53,11.13
7782.0,-0.59,1.53,11.51
7795.0,-0.3,1.46,11.82
7808.0,0.0,1.36,12.09
7821.0,0.19,1.14,12.38
7833.0,0.25,1.02,12.38
7846.0,0.16,0.88,12.13
7859.0,0.03,0.88,11.59
7872.0,-0.07,1.13,10.74
7885.0,-0.08,1.48,9.93
7898.0,0.03,1.61,9.84
7911.0,-0.15,1.11,10.42
7923.0,-0.6,0.27,11.17
7936.0,-1.1,-0.56,11.8
7949.0,-1.56,-1.19,11.87
7962.0,-1.68,-1.31,11.41
7975.0,-1.08,-1.14,10.92
7988.0,-0.31,-0.64,10.26
8001.0,0.47,0.09,9.43
8014.0,1.0,0.68,8.93
8026.0,1.3,1.17,8.39
8039.0,1.39,1.2,8.3
8052.0,1.44,0.79,8.84
8065.0,1.39,0.19,9.45
8078.0,1.33,-0.45,10.12
8091.0,1.3,-1.02,10.4
8103.0,1.41,-1.44,11.01
8116.0,1.5,-1.45,11.1
8129.0,1.8,-1.0,10.19
8142.0,2.18,-0.23,9.43
8155.0,2.43,0.48,8.82
8168.0,2.49,0.6,8.93
8181.0,2.34,0.28,9.17
8193.0,2.02,-0.35,9.69
8206.0,1.88,-0.83,9.99
8219.0,2.13,-0.85,9.68
8232.0,2.87,-0.41,8.87
8245.0,3.37,0.23,8.17
8258.0,3.56,0.48,8.3
8270.0,2.99,-0.49,9.57
8283.0,1.94,-2.15,11.15
8296.0,1.11,-3.46,11.88
8309.0,0.51,-3.91,11.59
8322.0,0.23,-3.81,11.01
8335.0,0.45,-3.53,10.49
8348.0,1.13,-3.01,10.04
8361.0,1.75,-2.25,9.59
8373.0,2.28,-1.97,9.82
8386.0,2.29,-2.28,10.21
8399.0,1.93,-2.4,9.6
8412.0,1.53,-2.23,8.68
8425.0,1.56,-2.03,8.13
8438.0,1.89,-2.01,8.37
8451.0,2.12,-2.18,8.81
8463.0,2.14,-2.31,8.96
8476.0,2.0,-2.49,9.08
8489.0,1.73,-3.05,9.64
8502.0,1.35,-3.62,10.14
8515.0,1.0,-3.84,10.19
8528.0,0.84,-3.81,10.03
8541.0,0.77,-3.54,9.64
8553.0,0.82,-3.26,9.23
8566.0,0.91,-3.07,8.85
8579.0,0.98,-3.11,9.04
8592.0,1.24,-3.12,9.38
8605.0,1.45,-3.03,9.75
8618.0,1.52,-3.07,9.97
8631.0,1.42,-3.19,10.1
8643.0,1.15,-3.39,10.06
8656.0,0.86,-3.41,9.96
8669.0,0.74,-3.4,9.85
8682.0,0.68,-3.24,9.62
8695.0,0.73,-2.93,9.29
8708.0,0.78,-2.66,9.06
8721.0,0.91,-2.53,9.02
8733.0,1.01,-2.55,9.22
8746.0,0.85,-2.99,9.88
8759.0,0.5,-3.6,10.29
8772.0,0.14,-4.01,10.4
8785.0,-0.08,-3.91,10.27
8798.0,-0.12,-3.56,9.88
8811.0,0.02,-3.19,9.51
8823.0,0.3,-2.91,9.27
8836.0,0.49,-2.76,9.46
8849.0,0.28,-2.73,9.86
8862.0,-0.16,-2.7,10.01
8875.0,-0.58,-2.83,10.01
8888.0,-0.56,-2.68,9.62
8901.0,-0.26,-2.22,9.09
8913.0,0.15,-1.64,8.93
8926.0,0.36,-1.36,9.01
8939.0,0.67,-1.16,9.27
8952.0,1.02,-0.84,9.31
8965.0,1.39,-0.51,9.45
8978.0,1.69,-0.22,9.47
8991.0,1.64,-0.22,9.54
9003.0,1.31,-0.35,9.62
9016.0,0.8,-0.63,9.61
9029.0,0.53,-0.81,9.37
9042.0,0.59,-0.72,9.22
9055.0,1.06,-0.21,9.07
9068.0,1.56,0.15,9.5
9081.0,1.81,0.12,10.19
9093.0,1.78,-0.07,10.68
9106.0,1.39,-0.36,10.84
9119.0,0.77,-0.57,10.68
9132.0,0.11,-0.66,10.05
9145.0,-0.3,-0.65,9.87
9158.0,-0.57,-0.42,9.91
9171.0,-0.69,0.06,9.87
9184.0,-0.82,0.37,9.99
9196.0,-1.2,0.63,9.85
9209.0,-1.44,0.99,9.59
9222.0,-1.35,1.09,9.86
9235.0,-1.07,1.19,10.33
9248.0,-0.85,1.29,10.68
9261.0,-0.68,1.4,11.03
9274.0,-0.56,1.37,11.77
9286.0,-0.65,1.24,12.32
9299.0,-0.87,1.13,12.36
9312.0,-0.91,1.11,12.3
9325.0,-0.82,1.2,12.1
9338.0,-0.64,1.32,11.66
9351.0,-0.54,1.44,11.32
9364.0,-0.64,1.54,10.93
9376.0,-0.87,1.56,10.47
9389.0,-0.94,1.58,10.16
9402.0,-0.77,1.6,9.91
9415.0,-0.48,1.68,9.88
9428.0,-0.43,1.52,10.25
9441.0,-0.61,0.99,10.74
9454.0,-0.91,0.26,11.16
9466.0,-1.11,-0.25,11.36
9479.0,-0.94,-0.28,10.97
9492.0,-0.37,0.08,10.69
9505.0,0.16,0.23,11.14
9518.0,0.45,-0.22,11.68
9531.0,0.6,-0.7,11.96
9544.0,0.95,-0.66,11.44
9556.0,1.49,-0.14,10.93
9569.0,1.89,0.41,10.31
9582.0,2.0,0.96,9.28
9595.0,1.94,1.37,8.49
9608.0,1.47,1.53,7.94
9621.0,1.02,1.41,7.6
9633.0,0.92,1.06,7.88
9646.0,0.9,0.73,8.91
9659.0,0.67,0.39,9.55
9672.0,0.31,-0.13,9.81
9685.0,0.04,-0.56,9.51
9698.0,-0.29,-0.79,9.49
9711.0,-0.78,-1.37,10.12
9723.0,-1.39,-2.35,10.84
9736.0,-2.06,-3.05,10.79
9749.0,-2.46,-3.34,9.91
9762.0,-1.86,-2.58,8.74
9775.0,-0.73,-1.26,7.74
9788.0,0.31,-0.37,7.37
9801.0,0.81,-0.34,8.11
9814.0,0.58,-1.35,9.77
9826.0,-0.1,-3.05,11.26
9839.0,-1.15,-4.1,11.51
9852.0,-1.83,-4.16,10.31
9865.0,-1.75,-3.45,8.72
9878.0,-0.69,-2.68,8.01
9891.0,0.62,-1.98,8.34
9904.0,1.45,-1.68,9.2
9916.0,1.47,-2.07,10.23
9929.0,0.68,-2.98,10.8
9942.0,-0.6,-3.79,10.61
9955.0,-1.6,-4.08,9.97
9968.0,-1.95,-4.06,9.57
9981.0,-1.6,-3.76,9.45
9994.0,-0.86,-3.37,9.4
10007.0,0.03,-2.89,9.42
10019.0,0.68,-2.4,9.26
10032.0,0.68,-2.35,9.56
10045.0,0.22,-2.8,9.82
10058.0,-0.49,-3.4,9.9
10071.0,-1.01,-3.71,9.83
10084.0,-1.12,-3.71,9.59
10097.0,-0.97,-3.49,9.53
10109.0,-0.71,-3.12,9.42
10122.0,-0.41,-2.81,9.24
10135.0,-0.13,-2.69,9.36
10148.0,-0.02,-2.53,9.34
10161.0,-0.11,-2.52,9.37
10174.0,-0.26,-2.71,9.65
10187.0,-0.44,-2.92,9.95
10200.0,-0.4,-2.87,9.79
10212.0,-0.09,-2.6,9.6
10225.0,0.26,-2.39,9.66
10238.0,0.49,-2.36,9.75
10251.0,0.56,-2.42,9.97
10264.0,0.52,-2.61,10.12
10277.0,0.29,-2.7,9.89
10290.0,0.19,-2.6,9.53
10303.0,0.46,-2.28,8.98
10315.0,1.05,-2.01,9.01
10328.0,1.64,-1.95,9.6
10341.0,1.77,-2.15,10.4
10354.0,1.49,-2.38,10.5
10367.0,0.84,-2.45,10.26
10380.0,0.28,-2.44,9.73
10393.0,-0.11,-2.24,9.22
10405.0,-0.28,-2.03,8.95
10418.0,-0.21,-1.7,8.74
10431.0,-0.1,-1.56,9.12
10444.0,0.12,-1.5,9.31
10457.0,0.18,-1.53,9.51
10470.0,0.25,-1.75,10.01
10483.0,0.21,-1.99,10.42
10495.0,0.02,-2.0,10.67
10508.0,-0.4,-1.97,10.59
10521.0,-0.8,-1.8,10.13
10534.0,-1.18,-1.37,9.45
10547.0,-1.33,-0.83,8.75
10560.0,-1.08,-0.33,8.56
10573.0,-0.79,0.03,8.62
10586.0,-0.57,0.12,9.08
10598.0,-0.5,-0.0,9.93
10611.0,-0.71,-0.37,10.53
10624.0,-1.04,-0.58,10.78
10637.0,-1.25,-0.44,10.63
10650.0,-1.59,-0.21,10.66
10663.0,-1.65,-0.04,10.75
10676.0,-1.49,0.09,11.31
10689.0,-1.23,0.26,11.87
10701.0,-1.17,0.3,12.4
10714.0,-1.19,0.33,12.43
10727.0,-1.32,0.55,12.18
10740.0,-1.43,0.76,11.95
10753.0,-1.51,0.86,11.72
10766.0,-1.52,0.97,11.56
10779.0,-1.44,0.89,11.6
10791.0,-1.4,0.9,11.42
10804.0,-1.29,0.99,11.15
10817.0,-1.07,1.07,10.85
10830.0,-0.8,1.11,10.69
10843.0,-0.62,1.09,10.86
10856.0,-0.7,0.87,11.15
10869.0,-1.02,0.31,11.54
10881.0,-1.43,-0.23,11.9
10894.0,-1.74,-0.55,11.91
10907.0,-1.61,-0.73,11.79
10920.0,-0.95,-0.72,11.56
10933.0,-0.0,-0.4,11.15
10946.0,0.76,0.04,11.03
10959.0,1.17,0.49,10.79
10971.0,1.14,0.53,10.4
10984.0,0.76,0.54,9.68
10997.0,0.15,0.67,8.85
11010.0,-0.31,0.52,8.54
11023.0,-0.38,0.07,9.01
11036.0,-0.07,-0.35,9.66
11049.0,0.29,-0.4,10.01
11061.0,0.52,-0.16,9.64
11074.0,0.47,-0.22,9.66
11087.0,0.13,-0.83,10.17
11100.0,-0.55,-1.12,9.79
11113.0,-1.26,-1.19,9.47
11126.0,-1.55,-0.82,8.46
11139.0,-1.51,-0.55,7.91
11151.0,-1.15,-0.48,7.86
11164.0,-0.75,-0.74,8.69
11177.0,-0.65,-1.27,9.42
11190.0,-0.9,-1.67,9.57
11203.0,-1.04,-1.8,9.24
11216.0,-0.75,-1.55,8.88
11229.0,-0.43,-1.13,8.96
11242.0,-0.33,-1.04,9.15
11254.0,-0.74,-1.29,9.46
11267.0,-1.44,-1.82,9.43
11280.0,-1.76,-2.21,9.49
11293.0,-1.77,-2.59,10.06
11306.0,-1.79,-3.02,10.48
11319.0,-1.67,-3.13,10.5
11332.0,-1.4,-2.95,10.2
11345.0,-1.05,-2.5,9.41
11357.0,-0.56,-2.06,8.94
11370.0,-0.19,-1.75,8.64
11383.0,-0.02,-1.7,8.53
11396.0,-0.09,-2.03,8.97
11409.0,-0.24,-2.45,9.11
11422.0,-0.39,-2.81,9.41
11435.0,-0.75,-3.18,9.82
11448.0,-1.25,-3.64,10.13
11460.0,-1.77,-4.09,10.34
11473.0,-1.96,-4.1,9.97
11486.0,-1.76,-3.65,9.19
11499.0,-1.31,-3.13,8.62
11512.0,-0.82,-2.91,8.55
11525.0,-0.47,-3.06,8.93
11538.0,-0.46,-3.42,9.45
11551.0,-0.89,-3.76,9.77
11563.0,-1.39,-3.96,9.74
11576.0,-1.57,-3.97,9.56
11589.0,-1.37,-3.75,9.25
11602.0,-0.92,-3.33,9.14
11615.0,-0.31,-2.96,9.09
11628.0,0.0,-2.75,9.07
11641.0,0.19,-2.9,9.1
11654.0,0.16,-3.14,9.39
11666.0,0.2,-3.51,9.71
11679.0,0.13,-3.95,10.38
11692.0,-0.1,-4.13,10.57
11705.0,-0.74,-4.05,10.5
11718.0,-1.14,-3.95,10.3
11731.0,-1.26,-3.49,9.52
11744.0,-0.95,-2.87,8.83
11756.0,-0.52,-2.46,9.01
11769.0,-0.06,-2.48,9.57
11782.0,0.17,-2.67,10.23
11795.0,0.19,-2.8,10.75
11808.0,0.03,-2.76,10.69
11821.0,-0.02,-2.47,10.22
11834.0,0.06,-1.93,9.65
11847.0,0.08,-1.2,9.24
11859.0,0.09,-0.77,8.93
11872.0,0.18,-0.6,9.17
11885.0,0.18,-0.43,9.36
11898.0,0.15,-0.41,9.87
11911.0,0.14,-0.49,10.55
11924.0,0.14,-0.63,11.15
11937.0,0.2,-0.66,11.17
11949.0,0.31,-0.28,10.4
11962.0,0.38,0.21,9.66
11975.0,0.34,0.61,9.22
11988.0,0.28,0.97,8.76
12001.0,0.0,1.21,8.85
12014.0,-0.46,1.04,9.31
12026.0,-1.39,0.51,9.82
12039.0,-2.36,0.01,9.85
12052.0,-2.97,-0.11,9.28
12065.0,-3.06,-0.04,8.96
12078.0,-2.93,0.16,9.0
12091.0,-2.54,0.6,9.02
12104.0,-2.31,1.13,9.22
12117.0,-2.33,1.65,9.25
12129.0,-2.41,2.11,8.88
12142.0,-2.58,2.44,9.04
12155.0,-2.36,2.54,9.8
12168.0,-2.21,2.35,10.58
12181.0,-2.15,2.11,11.28
12194.0,-2.16,1.91,11.66
12207.0,-2.15,1.91,11.6
12219.0,-2.02,1.95,11.45
12232.0,-1.67,2.02,11.61
12245.0,-1.14,2.07,11.92
12258.0,-0.68,2.07,12.22
12271.0,-0.38,1.97,12.56
12284.0,-0.57,1.63,12.54
12297.0,-0.9,1.03,12.79
12309.0,-1.39,0.63,12.85
12322.0,-1.84,0.18,12.8
12335.0,-2.06,-0.06,12.74
12348.0,-1.89,0.11,12.45
12361.0,-1.33,0.39,12.32
12374.0,-0.71,0.67,12.34
12387.0,-0.4,0.98,12.22
12399.0,-0.6,0.77,11.83
12412.0,-0.82,0.09,11.6
12425.0,-0.65,-0.43,11.18
12438.0,-0.56,-0.3,9.96
12451.0,-0.07,0.15,8.89
12464.0,0.62,0.72,8.47
12477.0,1.17,1.29,8.11
12489.0,1.13,1.4,8.0
12502.0,0.87,1.04,8.3
12515.0,0.61,0.7,8.04
12528.0,0.45,0.39,7.89
12541.0,0.23,0.04,8.15
12554.0,-0.02,-0.47,8.65
12566.0,-0.06,-0.68,8.72
12579.0,0.45,-0.3,8.16
12592.0,0.7,0.45,7.92
12605.0,0.68,0.44,8.76
12618.0,0.46,-0.31,9.64
12631.0,-0.36,-1.01,9.82
12644.0,-0.53,-1.03,9.26
12657.0,0.01,-0.53,8.36
12669.0,1.16,-0.09,8.1
12682.0,1.82,0.09,8.78
12695.0,1.79,-0.57,10.47
12708.0,0.74,-2.08,12.11
12721.0,-1.02,-3.56,12.72
12734.0,-2.97,-3.85,10.89
12747.0,-2.76,-3.19,8.51
12759.0,-1.74,-2.13,7.75
12772.0,0.11,-1.37,7.97
12785.0,1.69,-1.08,8.7
12798.0,2.27,-1.11,9.98
12811.0,1.66,-1.82,11.17
12824.0,-0.04,-3.07,11.4
12837.0,-1.86,-4.11,11.05
12849.0,-2.91,-4.33,9.84
