timestamp,accX,accY,accZ
2.0,0.63,0.91,11.43
15.0,0.58,1.12,9.12
28.0,0.87,2.09,10.28
41.0,0.62,2.78,9.72
54.0,0.55,3.31,9.09
66.0,0.74,3.72,9.4
79.0,0.86,3.83,10.32
92.0,0.93,3.89,11.0
105.0,1.04,4.14,11.12
118.0,1.03,4.36,11.15
131.0,0.84,4.49,10.89
143.0,0.77,4.52,11.01
156.0,0.75,4.48,11.54
169.0,0.59,4.25,12.05
182.0,0.26,3.82,12.18
195.0,0.02,3.62,11.68
208.0,0.02,3.7,10.7
221.0,0.15,3.86,9.76
233.0,0.6,4.14,9.42
246.0,1.21,4.41,9.37
259.0,1.45,4.17,9.67
272.0,0.89,3.31,10.15
285.0,-0.09,2.48,10.13
298.0,-0.94,1.94,9.56
310.0,-0.75,1.77,9.15
323.0,0.34,1.9,9.56
336.0,1.7,2.55,10.04
349.0,2.44,2.92,10.33
362.0,2.05,2.36,11.01
375.0,1.12,1.29,11.53
388.0,-0.04,0.16,11.55
400.0,-0.78,-0.6,11.11
413.0,-0.75,-0.77,10.47
426.0,0.32,-0.38,10.28
439.0,1.31,-0.36,11.19
452.0,1.39,-1.06,12.04
465.0,0.67,-2.2,12.85
478.0,-0.46,-2.91,12.24
490.0,-1.22,-2.99,10.6
503.0,-0.96,-2.37,9.09
516.0,0.5,-1.28,8.32
529.0,3.53,-0.13,9.86
542.0,-0.82,-1.88,7.63
555.0,0.2,-6.04,14.7
568.0,2.41,-5.49,16.5
580.0,-0.49,-2.8,10.87
593.0,-2.41,-2.55,5.09
606.0,-2.7,-2.52,4.03
619.0,-1.72,-3.35,7.04
632.0,-0.45,-4.11,10.19
645.0,0.47,-4.31,11.7
658.0,0.26,-4.61,12.57
671.0,-0.04,-4.39,11.4
683.0,-0.36,-3.78,9.49
696.0,-0.32,-2.95,7.93
709.0,-0.05,-2.52,7.75
722.0,0.25,-2.31,7.76
735.0,0.3,-2.26,7.54
748.0,0.26,-2.63,8.2
761.0,0.15,-3.34,9.51
774.0,-0.09,-3.73,9.99
786.0,-0.19,-3.8,9.71
799.0,0.14,-3.61,9.19
812.0,0.85,-3.37,9.25
825.0,1.07,-3.62,10.21
838.0,0.67,-4.28,10.79
851.0,-0.42,-4.72,10.72
864.0,-1.17,-4.6,10.0
876.0,-1.21,-4.05,8.94
889.0,-0.71,-3.79,9.52
902.0,-0.29,-3.69,10.39
915.0,0.01,-3.27,10.18
928.0,0.21,-2.68,9.58
941.0,0.22,-2.2,9.3
954.0,0.13,-1.8,9.12
966.0,-0.24,-1.43,8.56
979.0,-0.84,-1.18,7.9
992.0,-1.1,-1.35,8.45
1005.0,-0.81,-1.66,10.16
1018.0,-0.3,-1.7,11.44
1031.0,0.11,-1.45,11.8
1044.0,0.63,-0.86,11.95
1057.0,0.94,-0.21,11.92
1069.0,0.83,0.36,11.6
1082.0,0.63,0.92,11.18
1095.0,0.25,1.73,10.32
1108.0,-0.02,2.58,9.32
1121.0,-0.1,3.57,8.3
1134.0,-0.0,4.5,8.07
1147.0,0.24,4.94,8.79
1159.0,0.64,5.19,9.6
1172.0,0.83,5.24,10.16
1185.0,0.86,5.16,10.53
1198.0,0.75,5.01,10.71
1211.0,0.43,4.65,10.87
1224.0,0.02,4.3,11.22
1236.0,-0.42,3.82,11.52
1249.0,-0.65,3.35,11.66
1262.0,-0.73,3.11,11.33
1275.0,-0.7,3.15,10.69
1288.0,-0.49,3.46,10.03
1301.0,-0.02,3.86,9.56
1314.0,0.52,3.82,10.37
1326.0,0.52,3.04,11.64
1339.0,-0.04,2.17,12.04
1352.0,-0.69,1.64,11.54
1365.0,-1.12,1.67,10.44
1378.0,-0.93,2.17,9.38
1391.0,-0.06,3.0,8.81
1404.0,0.83,3.49,9.16
1416.0,1.31,3.58,9.23
1429.0,1.11,3.08,9.58
1442.0,0.63,1.98,10.43
1455.0,0.14,0.87,11.28
1468.0,0.02,0.18,11.6
1481.0,0.34,0.11,10.88
1493.0,0.93,0.24,10.41
1506.0,1.76,0.54,10.08
1519.0,2.02,0.1,10.6
1532.0,1.07,-1.22,12.04
1545.0,-0.39,-2.16,11.58
1558.0,-1.63,-2.0,9.52
1571.0,-1.84,-1.43,7.87
1583.0,-1.42,-1.31,7.6
1596.0,-0.62,-1.43,8.09
1609.0,-0.19,-2.12,9.25
1622.0,-0.51,-3.16,10.47
1635.0,-0.88,-3.71,10.65
1648.0,-1.27,-3.8,9.88
1661.0,-1.06,-3.49,9.22
1674.0,-0.29,-3.15,9.16
1686.0,0.29,-3.15,9.65
1699.0,0.4,-3.6,10.19
1712.0,0.18,-3.9,10.08
1725.0,0.19,-4.0,9.88
1738.0,0.44,-4.09,10.19
1751.0,0.7,-4.13,10.53
1764.0,0.46,-4.25,10.52
1776.0,-0.14,-4.31,10.16
1789.0,-0.71,-4.47,9.96
1802.0,-1.05,-4.7,10.12
1815.0,-0.94,-4.55,9.96
1828.0,-0.6,-4.13,9.8
1841.0,-0.12,-3.7,9.61
1854.0,0.23,-3.27,9.45
1867.0,0.48,-2.89,9.35
1879.0,0.64,-2.53,9.08
1892.0,0.78,-2.15,8.62
1905.0,0.89,-2.01,8.67
1918.0,0.92,-2.16,9.05
1931.0,0.78,-2.46,9.52
1944.0,0.59,-2.68,9.75
1957.0,0.22,-2.96,9.96
1969.0,-0.15,-3.06,9.77
1982.0,-0.29,-2.86,9.42
1995.0,-0.19,-2.53,9.19
2008.0,0.05,-2.42,9.67
2021.0,0.24,-2.18,9.71
2034.0,0.45,-1.53,9.2
2047.0,0.62,-0.81,8.78
2059.0,0.45,-0.52,9.1
2072.0,0.14,-0.35,9.33
2085.0,-0.18,-0.19,9.19
2098.0,-0.4,-0.16,9.64
2111.0,-0.44,-0.06,10.19
2124.0,-0.09,0.3,10.58
2137.0,0.46,0.95,10.71
2150.0,0.99,1.59,11.1
2162.0,1.36,2.16,11.36
2175.0,1.62,2.5,11.71
2188.0,1.72,2.75,11.86
2201.0,1.61,2.91,11.83
2214.0,1.22,3.09,11.49
2227.0,0.67,3.39,10.79
2239.0,0.14,4.05,9.78
2252.0,-0.25,4.37,9.57
2265.0,-0.39,4.14,10.46
2278.0,-0.48,3.85,11.21
2291.0,-0.62,3.57,11.53
2304.0,-0.54,3.51,11.71
2317.0,-0.29,3.37,12.03
2329.0,-0.12,3.2,12.3
2342.0,-0.11,3.09,12.2
2355.0,-0.26,3.09,11.67
2368.0,-0.44,3.16,11.1
2381.0,-0.63,3.23,10.57
2394.0,-0.76,3.37,10.16
2407.0,-0.76,3.38,10.03
2419.0,-0.81,3.17,10.06
2432.0,-0.89,2.79,10.13
2445.0,-0.82,2.5,10.37
2458.0,-0.57,2.34,10.55
2471.0,-0.37,2.13,10.64
2484.0,-0.36,1.84,10.41
2497.0,-0.51,1.41,10.27
2509.0,-0.65,1.04,9.71
2522.0,-0.32,1.3,8.78
2535.0,0.54,1.91,8.14
2548.0,1.57,2.48,8.17
2561.0,2.6,2.98,8.38
2574.0,3.0,2.95,9.09
2586.0,2.56,2.34,9.63
2599.0,1.57,1.43,9.79
2612.0,0.65,0.83,9.29
2625.0,0.28,0.33,9.25
2638.0,0.18,-0.26,9.32
2651.0,0.52,-0.66,9.61
2664.0,0.4,-1.45,10.63
2676.0,0.02,-2.33,11.6
2689.0,-0.12,-2.5,11.32
2702.0,-0.24,-2.59,11.09
2715.0,-0.79,-3.12,11.23
2728.0,-1.34,-3.6,10.94
2741.0,-1.86,-3.85,10.39
2754.0,-1.89,-3.75,9.68
2767.0,-1.41,-3.32,8.94
2779.0,-0.29,-2.52,7.87
2792.0,0.72,-2.21,8.52
2805.0,0.66,-2.71,9.87
2818.0,0.31,-3.52,10.37
2831.0,-0.42,-4.27,11.04
2844.0,-1.3,-4.53,10.6
2857.0,-1.76,-4.6,10.07
2869.0,-1.87,-4.41,9.58
2882.0,-1.72,-4.35,9.73
2895.0,-1.29,-4.14,9.68
2908.0,-0.89,-3.87,9.68
2921.0,-0.63,-3.84,9.95
2934.0,-0.68,-3.79,9.83
2947.0,-0.59,-3.59,9.67
2960.0,-0.29,-3.33,9.81
2972.0,0.14,-3.06,9.83
2985.0,0.55,-2.68,9.82
2998.0,0.77,-2.55,10.08
3011.0,0.56,-2.71,10.34
3024.0,0.11,-3.03,10.52
3037.0,-0.05,-3.25,10.7
3050.0,-0.07,-3.43,11.08
3063.0,0.11,-3.32,11.07
3075.0,0.15,-2.89,10.51
3088.0,0.16,-2.35,9.81
3101.0,-0.02,-1.92,8.9
3114.0,-0.22,-1.49,8.17
3127.0,-0.39,-1.17,7.64
3140.0,-0.43,-1.04,7.78
3153.0,-0.32,-1.02,8.1
3165.0,-0.21,-0.82,8.44
3178.0,-0.31,-0.7,8.8
3191.0,-0.09,-0.71,9.02
3204.0,0.42,-0.46,9.42
3217.0,0.59,0.17,9.59
3230.0,0.69,0.78,9.67
3243.0,0.52,1.21,9.81
3255.0,0.35,1.68,9.79
3268.0,0.09,1.89,10.21
3281.0,-0.29,1.94,10.58
3294.0,-0.5,2.11,10.79
3307.0,-0.4,2.64,10.72
3320.0,-0.14,3.07,10.9
3333.0,0.12,3.43,11.0
3345.0,0.33,3.98,10.87
3358.0,0.51,4.66,10.83
3371.0,0.41,5.07,10.81
3384.0,-0.07,5.26,10.55
3397.0,-0.79,5.16,10.1
3410.0,-1.28,4.68,10.25
3423.0,-1.14,4.29,10.94
3435.0,-0.58,4.24,11.15
3448.0,-0.12,4.33,10.72
3461.0,0.2,4.4,10.3
3474.0,0.55,4.31,10.31
3487.0,0.8,3.94,10.86
3500.0,0.8,3.32,11.52
3512.0,0.57,2.87,11.25
3525.0,0.28,2.74,10.49
3538.0,0.03,2.56,9.87
3551.0,0.12,2.5,9.53
3564.0,0.62,2.46,9.63
3577.0,1.55,2.58,9.97
3590.0,2.4,2.98,10.56
3602.0,2.39,2.59,11.72
3615.0,1.55,1.44,12.79
3628.0,0.43,0.18,13.33
3641.0,-0.43,-0.75,12.93
3654.0,-0.92,-1.32,12.29
3667.0,-0.74,-1.26,11.25
3680.0,-0.15,-0.6,10.24
3692.0,0.7,-0.01,9.78
3705.0,1.32,0.09,9.93
3718.0,1.29,-0.33,10.3
3731.0,0.68,-0.99,10.4
3744.0,-0.34,-1.58,9.98
3757.0,-1.26,-1.62,8.58
3770.0,-1.53,-1.38,7.51
3782.0,-1.17,-1.17,7.46
3795.0,-0.18,-1.11,8.04
3808.0,0.49,-1.27,8.89
3821.0,0.46,-1.73,9.56
3834.0,-0.28,-2.33,9.58
3847.0,-1.0,-2.84,9.18
3860.0,-1.34,-2.89,8.46
3873.0,-0.76,-2.66,8.02
3885.0,0.17,-2.43,8.51
3898.0,0.93,-2.44,9.27
3911.0,1.15,-2.63,9.89
3924.0,0.62,-3.19,10.45
3937.0,-0.28,-4.17,10.86
3950.0,-0.87,-4.8,10.93
3963.0,-0.96,-4.66,10.52
3975.0,-0.52,-4.23,10.07
3988.0,0.06,-3.7,9.73
4001.0,0.42,-3.22,9.44
4014.0,0.45,-3.17,9.62
4027.0,0.02,-3.45,10.08
4040.0,-0.36,-3.4,9.74
4053.0,-0.53,-3.2,9.49
4066.0,-0.49,-3.08,9.49
4078.0,-0.21,-2.93,9.44
4091.0,0.12,-3.06,9.86
4104.0,0.27,-3.21,10.05
4117.0,0.47,-3.19,9.95
4130.0,0.64,-3.03,10.17
4143.0,0.53,-3.03,10.36
4156.0,0.24,-2.86,10.09
4168.0,0.12,-2.54,9.6
4181.0,0.21,-2.25,9.43
4194.0,0.1,-2.14,9.64
4207.0,0.04,-1.99,9.52
4220.0,-0.01,-1.72,9.43
4233.0,0.28,-1.27,9.35
4246.0,0.56,-1.07,10.03
4258.0,0.66,-0.91,10.27
4271.0,0.45,-0.62,9.96
4284.0,0.5,-0.35,10.05
4297.0,0.85,-0.12,10.83
4310.0,1.3,0.26,11.37
4323.0,1.43,0.74,11.83
4336.0,1.44,1.27,11.57
4348.0,1.34,1.77,11.34
4361.0,1.34,2.25,10.95
4374.0,1.19,2.76,10.57
4387.0,0.64,3.24,9.87
4400.0,0.12,3.68,9.11
4413.0,-0.31,3.86,9.08
4425.0,-0.58,3.89,9.28
4438.0,-0.72,4.03,9.65
4451.0,-0.65,4.09,9.9
4464.0,-0.62,4.05,10.25
4477.0,-0.59,4.03,10.37
4490.0,-0.65,3.91,10.78
4503.0,-0.82,3.67,10.9
4515.0,-0.8,3.55,10.78
4528.0,-0.37,3.65,10.59
4541.0,-0.03,3.93,10.28
4554.0,0.2,4.27,9.75
4567.0,0.27,4.36,9.64
4580.0,0.2,4.2,9.99
4593.0,-0.16,3.63,10.21
4605.0,-0.44,3.01,10.26
4618.0,-0.65,2.57,10.07
4631.0,-0.63,2.4,9.84
4644.0,-0.53,2.36,9.46
4657.0,-0.16,2.56,8.93
4670.0,0.35,2.25,9.59
4683.0,0.65,1.1,11.76
4695.0,0.78,-0.07,13.26
4708.0,1.22,-0.88,13.63
4721.0,1.33,-0.7,12.65
4734.0,1.89,0.08,11.36
4747.0,2.51,0.54,11.15
4760.0,2.21,0.2,10.61
4773.0,0.82,-0.45,10.17
4785.0,-0.42,-1.13,9.64
4798.0,-1.12,-1.53,9.23
4811.0,-1.03,-1.69,9.27
4824.0,-0.42,-1.71,9.32
4837.0,-0.11,-1.77,9.29
4850.0,-0.36,-2.13,9.32
4863.0,-1.02,-2.77,9.54
4875.0,-1.39,-3.03,9.3
4888.0,-0.99,-2.62,8.64
4901.0,-0.39,-2.4,8.74
4914.0,-0.19,-2.78,9.39
4927.0,-0.77,-3.64,10.09
4940.0,-1.48,-4.47,10.48
4953.0,-1.7,-4.81,10.6
4966.0,-1.38,-4.62,10.34
4978.0,-0.74,-4.33,10.07
4991.0,0.25,-3.9,9.76
5004.0,1.15,-3.58,9.81
5017.0,1.49,-3.53,10.1
5030.0,0.98,-3.84,10.21
5043.0,0.13,-4.31,10.09
5056.0,-0.42,-4.57,9.76
5069.0,-0.49,-4.61,9.76
5081.0,-0.23,-4.47,9.57
5094.0,0.14,-4.07,9.33
5107.0,0.35,-3.67,9.17
5120.0,0.3,-3.49,9.14
5133.0,0.11,-3.5,9.25
5146.0,0.05,-3.52,9.35
5159.0,-0.04,-3.68,9.81
5171.0,-0.19,-3.95,10.07
5184.0,-0.16,-3.93,9.88
5197.0,0.21,-3.75,9.86
5210.0,0.7,-3.44,9.89
5223.0,0.99,-3.2,9.91
5236.0,0.63,-3.29,10.23
5249.0,-0.13,-3.33,9.61
5261.0,-0.8,-3.05,8.82
5274.0,-1.05,-2.81,8.75
5287.0,-0.82,-2.67,9.36
5300.0,-0.25,-2.47,9.99
5313.0,0.31,-1.83,9.96
5326.0,0.4,-1.21,9.93
5339.0,0.28,-0.46,9.29
5352.0,0.05,0.35,8.86
5364.0,-0.06,0.99,8.44
5377.0,0.1,1.42,8.3
5390.0,0.07,1.73,9.03
5403.0,-0.45,1.66,9.73
5416.0,-1.19,1.53,9.51
5429.0,-1.78,1.65,8.88
5442.0,-1.79,1.78,8.97
5454.0,-1.38,1.89,9.27
5467.0,-0.98,1.93,9.85
5480.0,-0.93,1.81,10.73
5493.0,-1.03,1.8,10.99
5506.0,-0.89,2.08,10.68
5519.0,-0.54,2.49,10.55
5532.0,-0.12,2.76,10.5
5544.0,0.16,2.95,10.66
5557.0,0.35,2.83,11.42
5570.0,0.31,2.5,12.37
5583.0,0.16,2.21,12.7
5596.0,0.11,2.28,12.67
5609.0,0.12,2.29,12.63
5621.0,0.11,2.38,12.28
5634.0,0.01,2.41,12.07
5647.0,-0.17,2.33,11.95
5660.0,-0.34,2.42,11.56
5673.0,-0.38,2.53,11.17
5686.0,-0.43,2.42,11.12
5699.0,-0.81,2.12,11.09
5711.0,-1.6,1.65,11.04
5724.0,-2.11,1.26,10.65
5737.0,-2.2,1.24,10.02
5750.0,-1.48,1.61,9.61
5763.0,-0.28,2.21,9.53
5776.0,0.56,2.9,9.34
5789.0,0.83,3.0,9.19
5801.0,0.62,2.65,8.88
5814.0,0.26,2.19,8.56
5827.0,0.16,1.77,8.48
5840.0,0.5,1.4,8.9
5853.0,1.21,0.99,9.99
5866.0,1.64,0.55,11.04
5878.0,1.56,0.1,11.49
5891.0,0.96,-0.37,11.1
5904.0,0.23,-0.92,10.49
5917.0,-0.78,-1.72,10.39
5930.0,-1.78,-2.58,10.13
5943.0,-1.7,-2.6,9.48
5956.0,-1.13,-2.48,9.77
5969.0,-0.76,-2.81,10.32
5981.0,-0.93,-3.26,10.66
5994.0,-1.54,-3.69,10.33
6007.0,-2.28,-3.96,9.47
6020.0,-2.07,-3.88,8.87
6033.0,-0.6,-2.93,8.4
6046.0,1.08,-2.27,8.86
6059.0,1.48,-2.84,10.42
6071.0,0.55,-3.73,10.93
6084.0,-0.81,-4.5,10.57
6097.0,-1.94,-5.07,10.12
6110.0,-1.98,-5.02,9.68
6123.0,-0.99,-4.45,9.23
6136.0,0.21,-3.79,9.31
6149.0,0.97,-3.49,9.74
6162.0,0.8,-3.6,9.91
6174.0,0.05,-3.84,9.49
6187.0,-0.7,-4.12,9.31
6200.0,-1.28,-4.37,9.25
6213.0,-1.62,-4.55,9.35
6226.0,-1.41,-4.56,9.77
6239.0,-1.0,-4.19,9.83
6252.0,-0.43,-3.67,9.5
6265.0,0.15,-3.21,9.5
6277.0,0.62,-2.87,9.35
6290.0,0.86,-2.56,9.26
6303.0,0.8,-2.4,8.96
6316.0,0.36,-2.54,8.79
6329.0,-0.13,-2.88,8.88
6342.0,-0.41,-3.06,9.05
6355.0,-0.42,-3.03,9.47
6367.0,-0.1,-3.03,10.05
6380.0,-0.0,-3.12,10.5
6393.0,-0.03,-3.23,10.8
6406.0,-0.2,-2.94,10.26
6419.0,-0.37,-2.31,9.14
6432.0,-0.39,-1.75,8.65
6445.0,-0.06,-1.74,9.72
6458.0,0.09,-1.67,10.91
6470.0,-0.01,-1.19,10.59
6483.0,-0.18,-0.48,9.7
6496.0,-0.31,0.33,8.62
6509.0,-0.25,0.88,8.36
6522.0,-0.09,1.09,9.23
6535.0,0.04,1.22,10.23
6548.0,-0.08,1.34,10.59
6560.0,-0.36,1.5,10.65
6573.0,-0.7,1.79,10.25
6586.0,-0.94,2.22,9.56
6599.0,-1.17,2.66,9.54
6612.0,-1.44,2.87,9.49
6625.0,-1.73,2.88,9.63
6638.0,-1.43,2.8,10.56
6650.0,-1.15,2.86,11.16
6663.0,-0.92,2.96,11.51
6676.0,-0.76,3.14,11.71
6689.0,-0.61,3.42,11.45
6702.0,-0.3,3.54,11.83
6715.0,-0.21,3.25,12.48
6728.0,-0.49,2.98,12.39
6740.0,-0.74,3.04,11.45
6753.0,-0.78,3.27,10.8
6766.0,-0.46,3.64,10.25
6779.0,-0.03,3.88,10.03
6792.0,0.52,3.94,10.37
6805.0,0.85,3.68,11.12
6818.0,0.52,3.07,11.37
6830.0,0.08,2.64,10.84
6843.0,-0.1,2.64,9.88
6856.0,0.35,3.0,8.9
6869.0,0.82,3.78,8.08
6882.0,1.42,4.05,8.42
6895.0,1.76,3.38,9.94
6907.0,1.43,2.2,11.41
6920.0,0.77,1.13,11.78
6933.0,0.04,0.43,11.12
6946.0,-0.21,0.25,10.28
6959.0,0.28,0.57,9.66
6972.0,1.11,0.88,8.85
6985.0,1.68,1.08,8.97
6997.0,1.48,0.95,8.85
7010.0,0.56,0.36,8.87
7023.0,-0.41,-0.27,8.6
7036.0,-1.13,-0.88,8.02
7049.0,-0.84,-1.22,8.04
7062.0,0.26,-1.2,8.85
7075.0,0.81,-1.52,9.99
7087.0,0.4,-2.25,10.64
7100.0,-1.0,-3.29,10.91
7113.0,-2.59,-4.17,10.81
7126.0,-3.18,-4.24,10.04
7139.0,-2.54,-3.61,9.25
7152.0,-1.29,-3.14,9.6
7165.0,-0.52,-3.18,10.38
7178.0,-0.67,-3.55,10.56
7190.0,-1.3,-4.21,10.65
7203.0,-1.77,-4.74,10.97
7216.0,-1.82,-4.88,10.91
7229.0,-1.63,-4.8,10.66
7242.0,-1.22,-4.49,10.25
7255.0,-0.8,-4.2,10.03
7268.0,-0.74,-4.25,10.25
7281.0,-0.82,-4.35,10.17
7293.0,-0.88,-4.27,10.04
7306.0,-0.85,-4.03,9.89
7319.0,-0.97,-3.79,9.69
7332.0,-1.0,-3.49,9.4
7345.0,-0.96,-3.23,9.27
7358.0,-0.55,-2.93,9.14
7371.0,-0.12,-2.81,9.62
7384.0,0.03,-2.92,10.24
7396.0,0.12,-3.12,10.4
7409.0,0.1,-3.14,10.36
7422.0,-0.12,-3.06,10.3
7435.0,-0.44,-2.77,9.81
7448.0,-0.84,-2.43,9.2
7461.0,-1.1,-2.18,8.85
7474.0,-0.96,-1.82,8.54
7486.0,-0.6,-1.56,8.82
7499.0,-0.05,-1.5,9.38
7512.0,0.19,-1.45,9.61
7525.0,0.46,-1.21,9.38
7538.0,0.65,-0.92,9.58
7551.0,0.57,-0.68,9.99
7564.0,0.13,-0.26,9.27
7576.0,-0.38,0.17,8.61
7589.0,-0.58,0.52,8.65
7602.0,-0.58,0.78,8.96
7615.0,-0.58,1.06,9.35
7628.0,-0.48,1.52,9.5
7641.0,-0.3,2.09,9.36
7654.0,-0.37,2.45,9.21
7667.0,-0.26,2.63,9.19
7679.0,-0.08,2.59,9.84
7692.0,0.09,2.49,10.87
7705.0,0.32,2.7,11.46
7718.0,0.54,3.17,11.63
7731.0,0.64,3.42,11.69
7744.0,0.49,3.34,11.9
7756.0,0.19,2.99,12.49
7769.0,-0.41,2.61,12.98
7782.0,-1.06,2.44,12.85
7795.0,-1.25,2.42,12.59
7808.0,-0.98,2.4,12.29
7821.0,-0.33,2.47,12.22
7834.0,0.44,2.98,11.52
7846.0,0.95,3.49,10.78
7859.0,1.09,4.14,9.5
7872.0,1.18,4.7,8.63
7885.0,1.35,4.62,9.21
7898.0,1.54,3.96,10.45
7911.0,1.66,3.24,11.24
7923.0,1.52,2.75,11.05
7936.0,1.19,2.48,10.13
7949.0,1.26,2.54,9.28
7962.0,1.78,2.91,8.78
7975.0,2.33,3.11,8.74
7988.0,2.77,3.19,8.8
8001.0,2.86,2.91,9.43
8013.0,2.42,2.18,10.31
8026.0,1.58,1.32,10.41
8039.0,0.62,0.74,9.63
8052.0,0.19,0.47,8.92
8065.0,0.64,0.54,8.69
8078.0,1.76,1.07,8.55
8090.0,2.45,1.19,8.99
8103.0,1.59,0.09,10.52
8116.0,-0.54,-1.97,12.01
8129.0,-3.32,-3.91,12.02
8142.0,-4.86,-4.73,11.14
8155.0,-4.84,-4.54,10.03
8168.0,-3.09,-3.72,9.43
8180.0,-0.99,-2.86,9.61
8193.0,0.45,-2.3,9.7
8206.0,0.33,-2.5,9.94
8219.0,-0.57,-3.1,9.75
8232.0,-1.62,-3.57,9.48
8245.0,-2.01,-3.97,9.35
8258.0,-1.6,-4.05,9.46
8271.0,-0.78,-3.92,9.78
8283.0,0.04,-3.72,9.81
8296.0,0.48,-3.55,9.66
8309.0,0.29,-3.54,9.39
8322.0,-0.1,-3.68,9.1
8335.0,-0.65,-3.94,9.19
8348.0,-1.13,-4.22,9.31
8361.0,-1.45,-4.52,9.49
8374.0,-1.45,-4.67,9.58
8386.0,-1.12,-4.49,9.5
8399.0,-0.57,-3.94,9.05
8412.0,-0.24,-3.48,8.93
8425.0,-0.22,-3.28,8.76
8438.0,-0.42,-3.17,8.61
8451.0,-0.36,-3.1,8.61
8464.0,-0.06,-2.94,8.72
8477.0,0.37,-2.87,8.76
8489.0,0.94,-2.84,9.02
8502.0,1.39,-2.99,9.67
8515.0,1.59,-3.08,10.17
8528.0,1.39,-3.61,10.66
8541.0,0.52,-3.67,10.53
8554.0,0.09,-3.31,9.75
8567.0,0.04,-3.02,9.68
8579.0,0.07,-2.95,9.7
8592.0,0.39,-2.78,9.67
8605.0,0.64,-2.49,10.11
8618.0,0.36,-2.3,10.02
8631.0,-0.4,-2.23,9.63
8644.0,-1.38,-2.28,9.17
8657.0,-1.94,-1.87,8.15
8669.0,-2.3,-1.32,7.54
8682.0,-1.9,-1.09,8.59
8695.0,-1.47,-1.02,10.13
8708.0,-1.32,-0.95,10.97
8721.0,-1.56,-0.67,10.7
8734.0,-1.48,0.1,9.66
8747.0,-1.05,0.85,9.3
8760.0,-0.43,1.34,9.86
8772.0,0.22,1.63,11.05
8785.0,0.33,1.93,11.65
8798.0,0.09,2.32,11.19
8811.0,-0.08,2.78,10.81
8824.0,-0.07,3.24,10.42
8837.0,-0.12,3.3,10.92
8849.0,-0.13,2.97,12.17
8862.0,-0.15,2.83,12.86
8875.0,0.0,3.13,12.68
8888.0,0.35,3.53,12.65
8901.0,0.81,3.74,12.98
8914.0,0.99,3.84,13.56
8927.0,0.64,3.8,13.28
8939.0,-0.23,3.62,12.29
8952.0,-0.76,3.48,11.22
8965.0,-0.8,3.47,10.63
8978.0,-0.54,3.65,10.05
8991.0,-0.29,3.95,9.5
9004.0,-0.07,4.21,9.21
9017.0,0.1,4.22,9.27
9029.0,0.21,3.9,9.66
9042.0,0.12,3.28,10.11
9055.0,-0.25,2.65,10.16
9068.0,-0.6,2.23,9.53
9081.0,-0.7,2.21,8.71
9094.0,-0.17,2.54,8.06
9107.0,0.56,2.58,8.57
9119.0,1.31,2.31,9.66
9132.0,1.5,1.7,10.79
9145.0,1.1,0.86,11.23
9158.0,0.52,0.28,10.62
9171.0,0.5,0.01,10.03
9184.0,1.1,-0.03,9.88
9196.0,2.11,0.28,10.1
9209.0,2.9,0.67,10.32
9222.0,3.02,0.85,10.4
9235.0,2.58,0.77,9.82
9248.0,1.82,0.58,9.4
9261.0,1.26,0.18,9.01
9273.0,0.52,-0.28,8.72
9286.0,0.15,-0.78,8.77
9299.0,-0.19,-1.31,9.06
9312.0,-0.62,-2.09,9.9
9325.0,-1.44,-2.93,10.67
9338.0,-2.5,-3.62,10.39
9351.0,-3.29,-3.77,9.4
9364.0,-3.29,-3.58,8.09
9376.0,-2.54,-3.06,7.74
9389.0,-1.02,-2.45,7.97
9402.0,0.02,-2.28,8.98
9415.0,-0.02,-2.99,10.13
9428.0,-1.06,-3.99,10.55
9441.0,-1.85,-4.44,9.94
9454.0,-2.0,-4.45,9.68
9467.0,-1.38,-4.27,9.78
9479.0,-0.47,-3.93,9.75
9492.0,0.28,-3.63,9.88
9505.0,0.43,-3.7,10.16
9518.0,0.04,-4.01,10.17
9531.0,-0.58,-4.37,10.25
9544.0,-1.07,-4.66,10.31
9557.0,-1.23,-4.67,10.23
9570.0,-1.12,-4.6,10.37
9582.0,-0.69,-4.32,10.27
9595.0,-0.22,-3.94,10.3
9608.0,0.15,-3.6,10.09
9621.0,0.23,-3.51,10.04
9634.0,0.14,-3.53,9.8
9647.0,-0.11,-3.62,9.65
9660.0,-0.17,-3.7,9.74
9672.0,-0.04,-3.77,9.94
9685.0,0.05,-3.83,10.09
9698.0,-0.06,-3.87,10.04
9711.0,-0.35,-3.89,10.01
9724.0,-0.5,-3.71,9.57
9737.0,-0.59,-3.22,8.7
9750.0,-0.49,-2.64,7.67
9763.0,0.0,-2.2,7.78
9775.0,0.58,-2.08,9.17
9788.0,0.6,-1.89,10.23
9801.0,0.03,-1.46,9.93
9814.0,-0.91,-1.1,9.62
9827.0,-1.82,-0.75,9.36
9840.0,-2.22,-0.19,9.08
9853.0,-2.36,0.45,8.99
9865.0,-2.45,1.16,8.84
9878.0,-2.58,1.91,8.61
9891.0,-2.43,2.55,8.39
9904.0,-2.27,2.8,9.02
9917.0,-2.11,2.93,9.38
9930.0,-2.22,3.19,9.49
9943.0,-2.52,3.24,9.8
9955.0,-2.77,3.41,10.06
9968.0,-2.62,3.52,10.3
9981.0,-2.14,3.41,11.3
9994.0,-1.78,3.11,12.57
10007.0,-1.74,2.82,13.38
10020.0,-1.7,2.66,13.8
10033.0,-1.69,2.66,13.91
10045.0,-1.59,2.94,13.62
10058.0,-1.52,3.44,12.84
10071.0,-1.58,3.61,12.16
10084.0,-1.57,3.69,11.18
10097.0,-1.59,3.82,10.32
10110.0,-1.59,3.98,9.47
10123.0,-1.48,4.2,8.75
10136.0,-1.1,4.17,8.88
10148.0,-0.92,3.5,9.7
10161.0,-1.12,2.43,10.62
10174.0,-1.45,1.59,10.87
10187.0,-1.66,1.25,10.36
10200.0,-1.68,1.18,9.59
10213.0,-1.25,1.25,8.84
10226.0,-0.44,1.56,8.69
10238.0,0.74,1.78,9.18
10251.0,1.64,1.36,10.98
10264.0,1.84,0.76,12.09
10277.0,1.19,0.43,11.58
10290.0,0.44,0.27,10.63
10303.0,0.01,0.1,10.13
10315.0,0.05,0.18,9.72
10328.0,0.25,0.38,9.46
10341.0,0.25,0.48,9.1
10354.0,0.19,0.31,8.91
10367.0,-0.48,-0.15,9.33
10380.0,-1.26,-0.88,9.62
10393.0,-1.9,-1.49,9.54
10405.0,-2.1,-1.77,9.07
10418.0,-1.71,-1.95,8.81
10431.0,-1.17,-2.12,9.13
10444.0,-0.52,-2.15,9.33
10457.0,-0.55,-2.29,9.61
10470.0,-0.83,-2.71,9.56
10483.0,-1.33,-3.06,9.58
10496.0,-1.79,-3.56,9.39
10508.0,-2.37,-4.13,9.45
10521.0,-2.35,-4.51,9.78
10534.0,-1.65,-4.4,9.97
10547.0,-0.63,-4.0,9.92
10560.0,-0.02,-3.84,9.91
10573.0,-0.09,-4.02,10.1
10586.0,-0.49,-4.3,10.03
10599.0,-1.0,-4.48,10.01
10611.0,-1.32,-4.62,9.9
10624.0,-1.48,-4.61,9.72
10637.0,-1.14,-4.5,9.55
10650.0,-0.55,-4.13,9.52
10663.0,-0.17,-4.0,9.95
10676.0,-0.35,-4.05,10.12
10689.0,-0.77,-4.02,9.95
10702.0,-0.96,-3.76,9.43
10714.0,-0.74,-3.38,9.09
10727.0,-0.44,-3.15,9.11
10740.0,-0.07,-2.97,9.09
10753.0,0.09,-2.97,9.5
10766.0,0.45,-3.2,9.86
10779.0,0.38,-3.5,10.44
10792.0,0.01,-3.72,10.8
10804.0,-0.64,-3.48,9.92
10817.0,-0.94,-2.95,8.96
10830.0,-0.68,-2.54,9.12
10843.0,-0.31,-2.25,9.54
10856.0,-0.08,-1.91,9.72
10869.0,-0.07,-1.41,9.64
10882.0,-0.17,-0.96,9.41
10895.0,-0.78,-0.71,8.91
10907.0,-1.46,-0.36,7.9
10920.0,-1.42,-0.08,8.36
10933.0,-0.9,0.1,9.39
10946.0,-0.4,0.43,9.9
10959.0,-0.1,0.85,10.15
10972.0,-0.07,1.29,9.97
10985.0,-0.09,1.65,9.86
10997.0,-0.48,1.85,9.51
11010.0,-1.12,2.12,8.9
11023.0,-1.63,2.21,8.83
11036.0,-1.74,2.12,9.28
11049.0,-1.47,2.18,9.81
11062.0,-1.08,2.23,10.28
11075.0,-0.51,2.45,10.56
11088.0,-0.09,2.63,10.89
11100.0,0.23,2.76,11.36
11113.0,0.16,2.71,11.86
11126.0,-0.3,2.58,11.96
11139.0,-1.0,2.5,11.84
11152.0,-1.52,2.52,11.61
11165.0,-1.84,2.54,11.64
11177.0,-2.0,2.53,11.54
11190.0,-2.04,2.53,11.2
11203.0,-1.71,2.73,10.74
11216.0,-1.29,3.02,10.39
11229.0,-0.87,3.26,9.97
11242.0,-0.54,3.38,9.8
11255.0,-0.4,3.13,10.12
11267.0,-0.68,2.74,10.36
11280.0,-1.26,2.23,10.27
11293.0,-1.53,1.93,10.0
11306.0,-1.28,1.91,9.82
11319.0,-0.8,1.93,9.8
11332.0,-0.34,2.01,9.53
11345.0,0.31,2.33,9.09
11357.0,0.66,2.53,9.22
11370.0,0.77,2.05,10.0
11383.0,0.46,1.26,10.74
11396.0,0.15,0.47,11.13
11409.0,0.13,0.0,11.28
11422.0,0.88,0.1,11.18
11435.0,1.9,0.6,11.15
11447.0,2.86,0.79,11.31
11460.0,2.82,0.45,12.13
11473.0,1.38,-0.6,12.59
11486.0,-0.5,-1.8,11.99
11499.0,-1.99,-2.26,10.79
11512.0,-2.17,-1.76,9.22
11525.0,-0.9,-0.88,8.47
11537.0,0.38,-0.52,9.06
11550.0,0.78,-0.95,10.19
11563.0,-0.07,-1.68,10.58
11576.0,-1.66,-2.56,10.22
11589.0,-3.06,-3.07,9.59
11602.0,-3.32,-2.94,8.33
11615.0,-2.25,-2.32,7.47
11628.0,-0.68,-1.77,7.86
11640.0,0.27,-1.81,9.07
11653.0,0.26,-2.63,10.67
11666.0,-0.78,-3.89,11.83
11679.0,-1.8,-4.68,11.77
11692.0,-2.35,-4.78,10.99
11705.0,-2.14,-4.32,9.58
11718.0,-0.94,-3.29,8.53
11730.0,0.35,-2.36,8.49
11743.0,1.19,-1.97,8.82
11756.0,1.28,-2.03,9.1
11769.0,0.81,-2.33,9.21
11782.0,0.19,-2.81,9.41
11795.0,-0.36,-3.12,9.28
11808.0,-0.78,-3.19,9.06
11821.0,-1.07,-3.03,8.67
11833.0,-0.98,-2.78,8.48
11846.0,-0.43,-2.34,8.33
11859.0,0.27,-1.93,8.36
11872.0,0.32,-2.01,8.72
11885.0,-0.04,-2.32,8.88
11898.0,-0.54,-2.51,8.81
11911.0,-0.85,-2.47,8.79
11923.0,-0.82,-2.52,9.17
11936.0,-0.53,-2.51,9.74
11949.0,-0.25,-2.44,10.06
11962.0,0.08,-2.17,9.74
11975.0,0.26,-1.67,9.5
11988.0,0.37,-1.41,9.7
12001.0,0.14,-1.36,10.32
12014.0,0.02,-1.69,11.02
12026.0,-0.44,-1.98,11.58
12039.0,-0.95,-1.64,11.07
12052.0,-1.43,-0.99,10.3
12065.0,-1.49,-0.24,9.6
12078.0,-1.44,0.41,9.42
12091.0,-1.23,0.84,9.99
12104.0,-1.09,1.14,10.5
12116.0,-1.12,1.29,10.75
12129.0,-1.16,1.54,10.51
12142.0,-1.03,2.09,10.01
12155.0,-0.76,2.81,9.5
12168.0,-0.6,3.47,9.08
12181.0,-0.39,3.73,9.53
12194.0,-0.46,3.53,10.62
12206.0,-0.72,3.3,10.85
12219.0,-1.07,3.16,10.61
12232.0,-0.99,3.19,10.7
12245.0,-0.57,3.26,11.19
12258.0,-0.05,3.45,11.75
12271.0,0.36,3.71,11.94
12284.0,0.45,3.94,11.63
12296.0,0.21,3.97,11.41
12309.0,-0.16,3.64,11.38
12322.0,-0.54,3.26,11.16
12335.0,-0.5,3.14,10.96
12348.0,-0.15,3.31,10.78
12361.0,0.23,3.6,10.3
12374.0,0.47,3.9,9.72
12386.0,0.4,3.96,9.34
12399.0,0.21,3.62,9.63
12412.0,-0.34,2.98,10.03
12425.0,-1.04,2.25,9.91
12438.0,-1.3,1.93,9.51
12451.0,-0.87,1.96,9.27
12464.0,0.03,2.37,9.15
12476.0,0.8,2.24,10.07
12489.0,1.15,1.44,11.95
12502.0,0.71,0.32,12.8
12515.0,-0.15,-0.41,12.31
12528.0,-0.86,-0.81,11.23
12541.0,-1.12,-1.21,10.99
12554.0,-1.19,-1.55,11.07
12566.0,-1.08,-1.45,10.37
12579.0,-0.74,-1.12,9.19
12592.0,-0.18,-0.57,8.74
12605.0,0.42,-0.35,9.05
12618.0,0.36,-0.55,9.63
12631.0,-0.37,-1.14,9.67
12644.0,-1.13,-1.81,9.16
12657.0,-1.52,-2.28,8.91
12669.0,-1.17,-2.43,8.65
12682.0,-0.2,-2.31,8.75
12695.0,0.72,-2.55,9.45
12708.0,1.1,-3.03,10.77
12721.0,0.7,-3.29,10.54
12734.0,0.13,-3.42,9.55
12747.0,-0.09,-3.46,8.95
12759.0,-0.04,-3.65,9.31
12772.0,0.06,-4.16,10.04
12785.0,0.13,-4.32,10.18
12798.0,0.42,-4.08,9.58
12811.0,0.85,-3.74,9.45
12824.0,1.03,-3.73,9.72
12837.0,0.47,-4.16,10.1
12849.0,-0.44,-4.79,10.22
