timestamp,accX,accY,accZ
2.0,-1.2,-1.88,10.33
15.0,-0.85,-1.65,8.46
28.0,-0.71,-1.92,9.88
41.0,-0.3,-1.81,10.04
54.0,0.27,-1.88,10.33
67.0,0.59,-2.1,10.49
79.0,0.67,-2.15,10.07
92.0,0.86,-1.84,9.43
105.0,1.12,-1.64,8.68
118.0,1.41,-1.44,8.26
131.0,1.83,-1.3,7.96
144.0,2.25,-1.25,8.03
157.0,2.25,-1.52,8.9
169.0,1.93,-2.43,10.2
182.0,1.18,-3.55,11.12
195.0,0.35,-4.11,10.86
208.0,0.16,-3.75,9.6
221.0,0.68,-2.98,8.67
234.0,1.42,-2.32,8.37
247.0,2.09,-2.11,8.61
259.0,2.13,-2.32,9.16
272.0,1.46,-2.94,9.76
285.0,0.71,-3.8,10.5
298.0,0.14,-4.19,10.72
311.0,-0.16,-4.01,10.29
324.0,-0.1,-3.53,9.66
337.0,0.31,-2.92,9.14
349.0,0.87,-2.42,8.98
362.0,1.26,-2.19,9.09
375.0,1.32,-2.2,9.19
388.0,1.11,-2.46,9.6
401.0,0.82,-2.77,9.77
414.0,0.5,-2.85,9.7
427.0,0.44,-2.86,9.73
439.0,0.49,-2.83,10.03
452.0,0.74,-2.63,10.28
465.0,0.84,-2.61,10.0
478.0,0.64,-2.66,9.7
491.0,0.48,-2.46,9.6
504.0,0.29,-2.38,9.48
517.0,0.01,-2.57,9.91
529.0,-0.01,-2.9,10.49
542.0,0.19,-3.06,11.21
555.0,0.41,-2.88,11.23
568.0,0.68,-2.38,10.76
581.0,0.92,-1.78,10.08
594.0,1.05,-1.32,9.77
607.0,1.11,-0.96,9.56
620.0,0.94,-0.68,9.22
632.0,0.71,-0.34,8.69
645.0,0.73,-0.05,8.73
658.0,0.85,0.06,9.36
671.0,0.96,0.08,9.82
684.0,1.11,0.29,10.19
697.0,1.26,0.7,10.57
709.0,1.28,1.21,10.65
722.0,1.44,1.51,10.8
735.0,1.7,1.51,11.42
748.0,1.6,1.75,11.41
761.0,1.05,2.18,11.08
774.0,0.2,2.55,10.59
787.0,-0.62,2.74,10.29
799.0,-1.32,2.93,10.04
812.0,-1.87,3.21,9.82
825.0,-2.09,3.39,10.04
838.0,-1.98,3.28,10.79
851.0,-1.78,3.13,11.51
864.0,-1.68,2.97,12.05
877.0,-1.65,2.75,12.2
889.0,-1.54,2.63,11.94
902.0,-1.43,2.58,11.43
915.0,-1.31,2.58,10.91
928.0,-1.22,2.59,10.55
941.0,-1.16,2.66,10.05
954.0,-1.11,2.83,9.52
967.0,-1.03,2.7,9.59
979.0,-0.95,2.34,9.78
992.0,-0.72,1.9,10.26
1005.0,-0.56,1.58,10.56
1018.0,-0.47,1.16,10.73
1031.0,-0.26,0.91,10.55
1044.0,0.15,1.25,9.62
1056.0,0.9,2.04,8.67
1069.0,1.52,2.61,8.53
1082.0,1.93,2.52,9.18
1095.0,1.76,1.79,10.4
1108.0,1.21,1.07,11.12
1121.0,0.81,0.54,11.24
1134.0,0.38,0.44,10.73
1146.0,0.12,0.45,10.07
1159.0,0.06,0.28,10.24
1172.0,-0.31,-0.5,11.34
1185.0,-1.25,-1.33,11.91
1198.0,-2.34,-1.59,11.25
1211.0,-2.62,-1.95,10.74
1224.0,-2.57,-1.66,9.97
1236.0,-2.21,-1.44,9.52
1249.0,-1.79,-1.45,9.65
1262.0,-1.49,-1.82,10.22
1275.0,-1.19,-2.16,10.51
1288.0,-1.22,-2.37,10.52
1301.0,-1.3,-2.67,10.49
1314.0,-1.29,-2.73,10.43
1327.0,-1.03,-2.64,10.24
1339.0,-0.7,-2.36,9.74
1352.0,-0.42,-2.09,9.12
1365.0,0.0,-1.77,8.49
1378.0,0.53,-1.31,8.04
1391.0,1.06,-1.27,8.51
1404.0,1.41,-1.83,9.68
1417.0,1.25,-2.6,10.51
1429.0,0.82,-3.08,10.75
1442.0,0.41,-3.12,10.21
1455.0,0.37,-2.81,9.55
1468.0,0.56,-2.53,9.2
1481.0,0.86,-2.37,9.24
1494.0,1.02,-2.32,9.25
1507.0,0.88,-2.19,8.94
1519.0,0.53,-2.11,8.78
1532.0,0.08,-2.25,8.72
1545.0,-0.21,-2.32,8.67
1558.0,-0.03,-2.28,8.73
1571.0,0.52,-2.1,8.93
1584.0,1.05,-2.02,9.22
1597.0,1.45,-1.97,9.35
1610.0,1.52,-1.86,9.38
1622.0,1.25,-1.9,9.48
1635.0,0.52,-2.24,9.59
1648.0,-0.36,-2.56,9.57
1661.0,-0.88,-2.82,9.7
1674.0,-0.56,-2.92,9.97
1687.0,0.42,-2.69,10.38
1700.0,1.22,-2.41,10.55
1712.0,1.68,-2.17,10.44
1725.0,1.75,-1.95,10.13
1738.0,1.38,-1.81,9.73
1751.0,0.61,-1.97,9.59
1764.0,-0.12,-2.29,9.78
1777.0,-0.6,-2.39,9.65
1790.0,-0.35,-1.94,9.26
1802.0,0.32,-1.19,9.19
1815.0,1.25,-0.48,9.35
1828.0,2.0,-0.05,10.13
1841.0,2.25,0.08,11.21
1854.0,1.91,0.06,11.84
1867.0,1.05,0.14,11.23
1880.0,-0.05,0.32,10.31
1892.0,-0.93,0.54,9.42
1905.0,-1.47,0.9,9.04
1918.0,-1.68,1.07,9.16
1931.0,-1.78,1.18,9.24
1944.0,-1.84,1.18,9.62
1957.0,-1.81,1.11,10.21
1970.0,-1.94,1.11,10.65
1982.0,-2.34,1.21,10.48
1995.0,-2.92,1.4,10.18
2008.0,-3.28,1.72,9.92
2021.0,-3.32,1.96,9.88
2034.0,-3.29,2.11,10.02
2047.0,-3.25,2.28,10.2
2060.0,-3.0,2.13,11.01
2072.0,-2.59,2.08,11.53
2085.0,-2.1,2.23,11.75
2098.0,-1.61,2.42,11.81
2111.0,-1.27,2.57,11.59
2124.0,-0.96,2.73,11.04
2137.0,-0.57,2.89,10.5
2150.0,-0.03,2.94,10.36
2162.0,0.51,2.83,10.66
2175.0,0.87,2.7,11.01
2188.0,0.75,2.41,11.33
2201.0,0.32,1.95,11.24
2214.0,-0.09,1.37,11.39
2227.0,-0.22,0.86,11.73
2240.0,-0.22,0.7,12.07
2252.0,-0.37,0.84,11.57
2265.0,-0.53,1.13,10.44
2278.0,-0.26,1.53,9.26
2291.0,0.54,1.88,8.94
2304.0,1.44,2.18,9.02
2317.0,2.07,2.11,9.9
2330.0,1.85,1.47,11.08
2342.0,0.62,0.37,11.56
2355.0,-0.76,-0.55,11.32
2368.0,-1.57,-0.91,10.68
2381.0,-1.57,-0.71,9.96
2394.0,-0.97,-0.43,9.93
2407.0,-0.35,-0.4,10.4
2420.0,-0.06,-0.57,10.68
2432.0,-0.36,-0.71,10.23
2445.0,-0.84,-0.68,9.28
2458.0,-1.18,-0.76,9.05
2471.0,-1.34,-1.15,9.36
2484.0,-1.45,-1.77,9.86
2497.0,-1.47,-2.04,9.85
2510.0,-1.21,-1.85,9.29
2523.0,-0.63,-1.39,8.72
2535.0,-0.08,-1.21,8.92
2548.0,-0.11,-1.44,9.22
2561.0,-0.68,-1.97,9.56
2574.0,-1.37,-2.25,9.19
2587.0,-1.65,-2.24,8.47
2600.0,-1.36,-2.1,8.08
2613.0,-0.63,-1.94,8.26
2626.0,0.17,-1.89,8.78
2638.0,0.63,-1.86,9.05
2651.0,0.6,-2.07,9.76
2664.0,0.18,-2.58,10.14
2677.0,-0.32,-2.93,10.14
2690.0,-0.64,-3.16,10.21
2703.0,-0.84,-3.24,10.1
2716.0,-0.66,-3.15,9.91
2729.0,-0.28,-2.81,9.49
2741.0,0.2,-2.47,9.39
2754.0,0.33,-2.54,9.78
2767.0,-0.01,-2.68,9.86
2780.0,-0.71,-2.83,9.61
2793.0,-1.21,-2.9,9.39
2806.0,-1.38,-2.89,9.45
2819.0,-1.13,-2.72,9.49
2831.0,-0.67,-2.4,9.45
2844.0,-0.3,-2.14,9.65
2857.0,-0.22,-2.26,10.19
2870.0,-0.51,-2.57,10.55
2883.0,-0.8,-2.8,10.69
2896.0,-0.74,-2.73,10.7
2909.0,-0.52,-2.49,10.94
2922.0,-0.47,-2.38,11.21
2934.0,-0.58,-2.5,11.22
2947.0,-0.81,-2.32,10.7
2960.0,-0.71,-1.86,9.8
2973.0,-0.2,-1.2,9.08
2986.0,0.45,-0.69,8.76
2999.0,0.75,-0.53,9.08
3012.0,0.88,-0.58,9.36
3025.0,0.67,-0.63,9.41
3037.0,0.1,-0.67,9.36
3050.0,-0.66,-0.9,9.32
3063.0,-1.36,-1.07,9.09
3076.0,-1.79,-1.02,8.81
3089.0,-1.46,-0.66,8.89
3102.0,-0.68,-0.11,9.48
3115.0,0.05,0.27,10.05
3127.0,0.35,0.33,10.96
3140.0,0.34,0.19,11.73
3153.0,-0.08,0.05,11.92
3166.0,-0.77,0.14,11.4
3179.0,-1.45,0.49,10.41
3192.0,-1.93,1.19,9.42
3205.0,-1.98,1.93,8.66
3217.0,-1.43,2.46,8.8
3230.0,-0.75,2.89,9.36
3243.0,-0.27,3.29,9.69
3256.0,-0.22,3.49,10.02
3269.0,-0.45,3.17,10.16
3282.0,-0.81,2.69,10.29
3295.0,-0.9,2.39,10.4
3307.0,-0.71,2.42,10.53
3320.0,-0.37,2.6,10.62
3333.0,-0.11,2.84,10.65
3346.0,0.14,3.07,10.67
3359.0,0.4,3.26,10.58
3372.0,0.69,3.36,10.62
3385.0,0.78,3.07,10.85
3397.0,0.5,2.63,10.93
3410.0,0.02,2.32,10.64
3423.0,-0.36,2.2,10.21
3436.0,-0.48,2.25,9.95
3449.0,-0.56,2.1,10.51
3462.0,-0.93,1.28,11.75
3474.0,-1.51,0.28,12.73
3487.0,-2.09,-0.34,12.69
3500.0,-2.52,-0.23,11.39
3513.0,-2.24,0.34,10.01
3526.0,-1.15,1.16,9.5
3539.0,0.03,1.63,10.15
3552.0,0.57,1.35,11.2
3564.0,0.3,0.67,11.78
3577.0,-0.38,0.19,11.43
3590.0,-0.8,-0.0,10.63
3603.0,-0.66,0.04,9.96
3616.0,0.03,0.25,9.71
3629.0,0.78,0.39,9.97
3642.0,1.04,0.24,10.47
3654.0,0.89,0.0,10.47
3667.0,0.54,-0.11,9.93
3680.0,0.33,-0.16,9.31
3693.0,0.24,-0.24,8.96
3706.0,0.18,-0.39,9.08
3719.0,0.2,-0.62,9.26
3732.0,0.19,-0.81,9.41
3744.0,-0.14,-1.3,9.65
3757.0,-0.61,-1.86,9.84
3770.0,-1.25,-2.37,9.89
3783.0,-1.78,-2.66,9.57
3796.0,-1.91,-2.69,9.26
3809.0,-1.51,-2.49,8.83
3822.0,-0.67,-2.15,8.56
3835.0,0.07,-1.89,8.81
3847.0,0.15,-2.16,9.52
3860.0,-0.32,-2.91,10.27
3873.0,-0.84,-3.55,10.58
3886.0,-1.05,-3.72,10.44
3899.0,-0.73,-3.31,9.81
3912.0,-0.08,-2.84,9.46
3925.0,0.29,-2.57,9.57
3938.0,0.42,-2.48,9.6
3950.0,0.11,-2.56,9.53
3963.0,-0.21,-2.73,9.51
3976.0,-0.44,-2.98,9.62
3989.0,-0.61,-3.19,9.78
4002.0,-0.68,-3.31,9.87
4015.0,-0.61,-3.25,9.83
4028.0,-0.51,-2.91,9.45
4040.0,-0.36,-2.61,9.2
4053.0,-0.15,-2.41,9.12
4066.0,0.15,-2.25,9.2
4079.0,0.36,-2.15,9.29
4092.0,0.28,-2.04,9.35
4105.0,-0.15,-2.21,9.33
4118.0,-0.75,-2.42,9.22
4131.0,-0.93,-2.59,9.26
4143.0,-0.61,-2.52,9.44
4156.0,-0.15,-2.35,9.43
4169.0,0.28,-2.3,9.47
4182.0,0.69,-2.31,9.85
4195.0,1.07,-2.3,10.16
4208.0,1.06,-2.32,10.36
4221.0,0.61,-2.53,10.43
4233.0,-0.04,-2.6,9.86
4246.0,-0.66,-2.51,9.14
4259.0,-0.58,-2.31,9.11
4272.0,-0.07,-2.13,9.65
4285.0,0.52,-2.07,10.56
4298.0,0.95,-2.13,11.47
4311.0,1.24,-1.92,11.66
4324.0,1.29,-1.51,11.39
4336.0,1.12,-1.19,11.11
4349.0,0.69,-1.0,10.84
4362.0,-0.02,-0.8,10.12
4375.0,-0.88,-0.56,9.52
4388.0,-1.65,-0.29,8.91
4401.0,-2.3,0.04,8.07
4414.0,-2.33,0.38,7.91
4426.0,-1.84,0.62,8.41
4439.0,-1.0,0.94,8.77
4452.0,-0.29,1.37,9.28
4465.0,0.57,1.64,10.21
4478.0,1.05,1.77,11.03
4491.0,1.06,1.81,11.52
4504.0,0.55,1.87,11.75
4516.0,-0.02,1.77,11.94
4529.0,-0.5,1.75,11.85
4542.0,-0.88,1.85,11.5
4555.0,-1.17,1.95,11.21
4568.0,-1.26,1.86,11.33
4581.0,-1.19,1.7,11.77
4594.0,-0.87,1.58,12.17
4606.0,-0.49,1.67,12.24
4619.0,-0.18,1.64,12.24
4632.0,0.04,1.51,12.04
4645.0,-0.06,1.59,11.15
4658.0,-0.27,1.92,10.06
4671.0,-0.4,2.33,9.19
4684.0,-0.32,2.56,9.14
4696.0,-0.26,2.24,9.79
4709.0,-0.42,1.66,10.4
4722.0,-0.71,0.83,11.01
4735.0,-0.99,0.24,11.24
4748.0,-1.09,0.18,10.64
4761.0,-0.81,0.56,9.63
4774.0,-0.08,1.1,8.83
4786.0,0.75,1.58,8.62
4799.0,1.37,1.55,9.43
4812.0,1.69,0.96,10.79
4825.0,1.67,-0.04,12.01
4838.0,1.16,-0.78,12.23
4851.0,0.43,-0.96,11.4
4864.0,0.05,-0.87,10.71
4876.0,0.04,-0.65,10.07
4889.0,0.05,-0.39,9.64
4902.0,-0.13,-0.08,9.16
4915.0,-0.48,-0.03,8.93
4928.0,-0.84,-0.49,9.67
4941.0,-1.57,-1.47,10.59
4954.0,-2.36,-2.23,10.64
4966.0,-2.65,-2.36,10.02
4979.0,-2.41,-2.18,9.48
4992.0,-1.84,-2.02,9.43
5005.0,-1.28,-1.73,9.36
5018.0,-1.23,-1.72,9.55
5031.0,-1.78,-2.07,9.38
5044.0,-2.18,-2.31,9.1
5057.0,-2.31,-2.46,9.09
5069.0,-2.14,-2.64,9.18
5082.0,-1.62,-2.74,9.59
5095.0,-1.01,-2.74,9.89
5108.0,-0.87,-2.82,10.12
5121.0,-1.02,-2.72,9.75
5134.0,-1.18,-2.64,9.36
5147.0,-0.93,-2.44,8.83
5160.0,-0.43,-2.16,8.55
5172.0,-0.15,-1.98,9.1
5185.0,0.16,-2.26,9.14
5198.0,-0.1,-2.4,9.3
5211.0,-0.4,-2.68,9.36
5224.0,-0.67,-2.87,9.38
5237.0,-0.9,-3.15,9.47
5250.0,-0.93,-3.23,9.54
5263.0,-0.99,-3.48,9.98
5275.0,-1.1,-3.75,10.22
5288.0,-1.27,-3.79,10.09
5301.0,-1.4,-3.72,9.81
5314.0,-1.5,-3.52,10.26
5327.0,-1.3,-3.23,9.48
5340.0,-1.18,-3.46,9.25
5353.0,-1.06,-3.25,9.34
5366.0,-0.79,-2.73,9.22
5378.0,-0.4,-2.29,9.19
5391.0,0.02,-2.07,9.45
5404.0,0.35,-1.85,9.61
5417.0,0.7,-1.71,9.79
5430.0,0.93,-1.74,10.05
5443.0,0.97,-1.7,9.96
5456.0,1.02,-1.56,9.67
5468.0,1.02,-1.71,9.7
5481.0,0.41,-2.03,9.97
5494.0,-0.38,-2.72,10.37
5507.0,-1.1,-3.26,10.58
5520.0,-1.36,-3.48,10.36
5533.0,-1.4,-3.65,10.28
5546.0,-1.0,-3.37,10.19
5559.0,-0.7,-2.59,9.85
5571.0,-0.57,-1.96,9.42
5584.0,-0.65,-1.56,9.05
5597.0,-0.77,-1.38,8.84
5610.0,-0.68,-1.29,8.73
5623.0,-0.45,-1.28,9.08
5636.0,-0.15,-1.38,9.75
5649.0,0.03,-1.25,9.92
5662.0,0.1,-0.84,9.56
5674.0,0.16,-0.42,9.3
5687.0,0.11,-0.12,9.23
5700.0,0.22,-0.01,9.22
5713.0,0.21,-0.04,9.88
5726.0,0.19,-0.27,10.8
5739.0,0.06,-0.07,10.92
5752.0,-0.19,0.89,9.56
5764.0,-0.47,1.88,8.54
5777.0,-0.18,2.29,8.97
5790.0,0.46,2.18,10.21
5803.0,0.99,2.01,11.17
5816.0,1.28,1.79,12.05
5829.0,1.38,1.66,12.32
5841.0,1.11,1.73,12.29
5854.0,0.64,1.75,12.27
5867.0,-0.15,1.8,11.87
5880.0,-1.11,2.08,11.0
5893.0,-1.82,2.3,10.34
5906.0,-2.19,2.57,9.97
5919.0,-1.97,2.69,10.1
5931.0,-1.59,2.54,10.5
5944.0,-1.14,2.42,10.8
5957.0,-0.79,2.43,10.66
5970.0,-0.38,2.48,10.49
5983.0,-0.1,2.52,10.3
5996.0,0.15,2.62,10.11
6009.0,0.36,2.61,10.23
6021.0,0.3,2.24,10.92
6034.0,-0.08,1.52,11.6
6047.0,-0.64,0.75,11.78
6060.0,-0.85,0.5,11.13
6073.0,-0.59,0.79,10.4
6086.0,0.14,1.35,10.01
6099.0,1.07,1.72,10.1
6111.0,1.48,1.72,10.36
6124.0,1.26,1.55,10.49
6137.0,0.56,0.92,10.69
6150.0,-0.01,0.29,10.65
6163.0,-0.18,-0.04,10.54
6176.0,0.02,-0.15,10.39
6189.0,0.52,0.05,9.89
6201.0,1.16,0.55,9.41
6214.0,1.65,1.2,8.97
6227.0,1.61,1.37,9.34
6240.0,1.07,0.54,10.13
6253.0,0.21,-0.7,11.01
6266.0,-0.8,-1.71,11.33
6278.0,-1.57,-2.03,10.63
6291.0,-1.63,-1.8,9.74
6304.0,-0.92,-1.01,8.56
6317.0,-0.05,-0.45,8.4
6330.0,0.29,-0.28,8.59
6343.0,-0.17,-0.73,9.13
6356.0,-0.76,-1.58,9.88
6369.0,-1.16,-2.23,10.25
6381.0,-1.34,-2.41,9.99
6394.0,-1.1,-2.44,9.66
6407.0,-0.79,-2.21,9.23
6420.0,-0.41,-1.9,8.75
6433.0,-0.17,-1.7,8.71
6446.0,-0.12,-1.73,9.08
6459.0,-0.26,-2.11,9.84
6472.0,-0.52,-2.74,10.35
6484.0,-0.59,-3.09,10.54
6497.0,-0.4,-3.04,10.51
6510.0,-0.1,-3.0,10.63
6523.0,-0.04,-3.06,10.86
6536.0,-0.5,-3.36,10.99
6549.0,-1.22,-3.53,10.74
6562.0,-1.66,-3.44,10.24
6575.0,-1.79,-3.2,9.66
6587.0,-1.59,-2.66,8.83
6600.0,-1.22,-2.42,8.81
6613.0,-0.75,-2.21,8.93
6626.0,-0.65,-1.98,8.76
6639.0,-0.85,-1.92,8.86
6652.0,-1.2,-2.04,8.97
6665.0,-1.3,-2.15,9.09
6678.0,-1.05,-2.08,9.18
6690.0,-0.8,-1.88,9.08
6703.0,-0.38,-1.59,8.84
6716.0,0.02,-1.4,8.82
6729.0,0.18,-1.5,9.12
6742.0,-0.2,-1.87,9.47
6755.0,-1.02,-2.21,9.41
6768.0,-1.66,-2.48,9.44
6781.0,-1.7,-2.41,9.22
6793.0,-1.22,-1.98,9.0
6806.0,-0.43,-1.67,9.34
6819.0,0.1,-1.54,9.75
6832.0,0.33,-1.49,10.07
6845.0,0.22,-1.45,9.9
6858.0,-0.06,-1.39,9.64
6871.0,-0.39,-1.55,8.97
6883.0,-0.72,-1.41,8.37
6896.0,-0.64,-1.58,8.88
6909.0,0.06,-1.84,10.15
6922.0,0.94,-1.67,10.86
6935.0,1.62,-1.15,11.08
6948.0,2.01,-0.89,11.1
6961.0,2.12,-0.63,10.81
6973.0,2.04,-0.27,10.55
6986.0,1.78,-0.17,10.59
6999.0,1.06,-0.37,10.63
7012.0,0.17,-0.42,10.42
7025.0,-0.68,-0.35,10.17
7038.0,-1.36,-0.3,10.09
7051.0,-1.61,-0.03,9.9
7064.0,-1.63,0.21,10.14
7076.0,-1.57,0.43,10.39
7089.0,-1.53,0.69,10.54
7102.0,-1.43,1.03,10.5
7115.0,-1.41,1.46,10.44
7128.0,-1.55,1.87,10.44
7141.0,-1.62,2.19,10.64
7154.0,-1.4,2.32,11.33
7166.0,-1.14,2.4,11.92
7179.0,-1.11,2.53,12.42
7192.0,-1.46,2.22,13.12
7205.0,-2.13,1.54,13.6
7218.0,-2.69,1.1,13.22
7231.0,-2.54,1.31,12.38
7244.0,-1.69,1.84,11.5
7256.0,-0.86,2.5,10.55
7269.0,-0.26,3.06,9.7
7282.0,0.05,3.17,9.53
7295.0,0.08,2.7,9.93
7308.0,-0.26,2.02,10.36
7321.0,-0.6,1.14,10.8
7334.0,-0.74,0.49,11.22
7346.0,-0.72,0.13,11.25
7359.0,-0.5,0.2,10.96
7372.0,-0.13,0.5,10.34
7385.0,0.24,0.92,9.52
7398.0,0.35,1.42,8.96
7411.0,0.71,1.7,7.98
7423.0,0.99,1.52,8.33
7436.0,0.79,0.86,9.37
7449.0,0.14,-0.37,10.18
7462.0,-0.52,-1.68,11.26
7475.0,-1.08,-2.5,11.59
7488.0,-1.19,-2.83,11.37
7501.0,-0.93,-2.72,10.64
7514.0,-0.53,-2.36,10.33
7526.0,-0.16,-2.12,10.36
7539.0,-0.01,-2.41,10.56
7552.0,-0.17,-2.5,10.25
7565.0,-0.68,-2.36,9.55
7578.0,-0.81,-2.25,9.09
7591.0,-0.59,-2.21,9.04
7604.0,-0.13,-2.16,9.31
7617.0,0.14,-2.18,9.54
7629.0,0.07,-2.09,9.23
7642.0,0.11,-1.83,8.69
7655.0,0.46,-1.78,8.88
7668.0,0.73,-1.82,9.19
7681.0,0.53,-2.06,9.75
7694.0,-0.03,-2.71,10.1
7707.0,-0.48,-3.14,10.22
7719.0,-0.6,-3.09,9.94
7732.0,-0.24,-2.73,9.56
7745.0,0.41,-2.35,9.38
7758.0,0.95,-2.03,9.19
7771.0,1.12,-1.81,9.05
7784.0,0.95,-2.07,9.41
7797.0,0.3,-2.78,10.0
7809.0,-0.31,-3.47,10.55
7822.0,-0.72,-3.89,10.78
7835.0,-0.59,-3.8,10.41
7848.0,-0.27,-3.36,9.87
7861.0,0.05,-2.86,9.31
7874.0,0.12,-2.6,9.19
7887.0,-0.17,-2.84,9.28
7900.0,-0.4,-3.13,9.41
7912.0,-0.45,-3.09,9.27
7925.0,-0.25,-2.76,8.9
7938.0,0.01,-2.33,8.67
7951.0,0.33,-2.11,8.53
7964.0,0.59,-2.01,8.4
7977.0,0.69,-1.95,8.52
7990.0,0.77,-2.04,8.68
8002.0,0.77,-2.18,9.1
8015.0,0.69,-2.4,9.33
8028.0,0.65,-2.57,9.44
8041.0,0.72,-2.48,9.27
8054.0,0.75,-2.15,8.85
8067.0,0.9,-1.69,8.51
8080.0,1.15,-1.47,8.81
8092.0,1.2,-1.4,9.32
8105.0,0.97,-1.61,9.86
8118.0,0.67,-1.84,10.17
8131.0,0.44,-1.71,9.91
8144.0,0.3,-1.25,9.38
8157.0,0.12,-0.77,8.71
8170.0,-0.11,-0.33,8.15
8182.0,-0.4,-0.34,8.47
8195.0,-0.88,-1.01,9.71
8208.0,-1.27,-1.69,10.6
8221.0,-1.41,-1.58,10.61
8234.0,-1.14,-1.16,10.56
8247.0,-0.68,-0.55,10.21
8260.0,-0.38,0.23,9.59
8273.0,0.02,0.69,9.51
8285.0,0.6,0.79,10.18
8298.0,0.94,0.71,10.96
8311.0,0.84,0.5,11.54
8324.0,0.28,0.29,11.73
8337.0,-0.47,0.21,11.5
8350.0,-0.95,0.3,11.18
8363.0,-1.08,0.44,11.14
8375.0,-1.09,0.67,11.02
8388.0,-0.95,0.81,11.19
8401.0,-0.56,0.93,11.53
8414.0,-0.24,1.04,11.8
8427.0,0.01,1.12,12.08
8440.0,0.3,1.08,12.2
8453.0,0.6,1.05,12.29
8465.0,0.8,1.09,12.24
8478.0,0.78,1.11,12.03
8491.0,0.81,1.13,11.61
8504.0,1.02,1.34,11.09
8517.0,1.22,1.65,10.51
8530.0,1.3,1.8,10.17
8542.0,1.14,1.64,10.3
8555.0,0.79,1.15,10.84
8568.0,0.38,0.57,11.29
8581.0,0.09,0.21,11.51
8594.0,-0.18,-0.03,11.47
8607.0,-0.25,-0.12,11.12
8620.0,0.02,0.05,10.64
8632.0,0.37,0.34,10.63
8645.0,0.62,0.37,10.52
8658.0,0.64,0.4,10.04
8671.0,0.66,0.39,9.67
8684.0,0.76,0.06,9.99
8697.0,0.77,-0.57,10.58
8709.0,0.55,-1.09,10.83
8722.0,0.38,-1.12,10.21
8735.0,0.58,-0.44,8.55
8748.0,0.8,0.66,7.18
8761.0,0.9,0.75,7.41
8774.0,0.72,0.06,8.44
8787.0,0.44,-0.82,9.72
8799.0,0.15,-1.64,10.5
8812.0,0.01,-1.96,10.34
8825.0,0.22,-1.88,9.86
8838.0,0.91,-1.49,9.31
8851.0,1.54,-1.01,8.94
8864.0,1.91,-0.82,8.99
8877.0,1.76,-0.83,9.29
8889.0,1.03,-1.49,9.9
8902.0,0.21,-2.28,10.34
8915.0,-0.44,-2.76,10.31
8928.0,-0.54,-2.68,9.69
8941.0,-0.09,-2.32,9.19
8954.0,0.52,-1.98,9.15
8967.0,0.62,-2.24,9.94
8979.0,0.11,-3.24,10.79
8992.0,-0.62,-3.95,11.06
9005.0,-1.31,-4.12,10.38
9018.0,-1.64,-3.86,9.33
9031.0,-1.19,-3.19,8.31
9044.0,-0.52,-2.71,8.17
9057.0,-0.13,-3.06,9.14
9070.0,-0.31,-3.83,10.29
9082.0,-0.93,-4.43,10.76
9095.0,-1.4,-4.64,10.64
9108.0,-1.41,-4.6,10.36
9121.0,-1.02,-4.24,9.96
9134.0,-0.66,-3.81,9.69
9147.0,-0.52,-3.53,9.52
9160.0,-0.6,-3.5,9.5
9173.0,-0.76,-3.55,9.56
9185.0,-0.93,-3.32,9.2
9198.0,-0.96,-2.99,8.82
9211.0,-0.81,-2.84,9.06
9224.0,-0.59,-2.94,9.65
9237.0,-0.36,-3.11,10.23
9250.0,-0.16,-3.21,10.49
9263.0,-0.02,-3.12,10.4
9276.0,-0.23,-3.01,10.21
9288.0,-0.47,-3.01,10.08
9301.0,-0.65,-3.06,10.22
9314.0,-0.46,-3.17,10.68
9327.0,0.0,-3.11,10.92
9340.0,0.38,-2.74,10.72
9353.0,0.73,-2.15,10.14
9366.0,0.82,-1.74,9.58
9378.0,0.54,-1.69,9.24
9391.0,0.27,-1.98,9.14
9404.0,-0.02,-2.23,9.32
9417.0,-0.09,-2.36,9.46
9430.0,-0.15,-1.85,8.64
9443.0,-0.17,-0.81,7.37
9456.0,-0.56,-0.44,6.78
9469.0,0.29,-0.49,7.62
9481.0,1.17,-0.6,8.89
9494.0,1.56,-0.73,9.94
9507.0,1.53,-0.96,10.6
9520.0,1.1,-0.97,10.47
9533.0,0.59,-0.64,9.57
9546.0,0.06,-0.28,8.9
9559.0,-0.45,-0.11,8.6
9571.0,-0.79,0.01,8.35
9584.0,-0.66,0.02,8.91
9597.0,-0.09,0.19,9.48
9610.0,0.26,0.52,9.85
9623.0,0.26,0.64,10.5
9636.0,0.2,0.52,11.31
9649.0,-0.08,0.38,11.84
9661.0,-0.25,0.55,11.87
9674.0,-0.21,1.0,11.68
9687.0,0.01,1.53,11.72
9700.0,0.26,1.78,12.17
9713.0,0.31,1.67,12.63
9726.0,0.09,1.52,12.66
9738.0,-0.23,1.44,12.54
9751.0,-0.53,1.45,12.34
9764.0,-0.94,1.35,12.08
9777.0,-1.34,1.11,11.79
9790.0,-1.69,0.94,11.6
9803.0,-1.84,0.82,11.34
9816.0,-1.83,0.89,11.09
9828.0,-1.64,0.99,11.03
9841.0,-1.46,0.91,11.17
9854.0,-1.41,0.74,11.15
9867.0,-1.31,0.5,11.14
9880.0,-1.09,0.48,10.99
9893.0,-0.7,0.67,10.62
9906.0,-0.21,0.96,10.07
9918.0,0.29,1.13,9.88
9931.0,0.57,0.98,9.91
9944.0,0.36,0.69,9.55
9957.0,-0.13,0.54,8.66
9970.0,-0.38,0.64,7.65
9983.0,0.14,0.96,7.2
9996.0,1.31,0.95,8.54
10008.0,1.89,0.32,10.41
10021.0,1.53,-0.72,12.05
10034.0,0.29,-1.66,12.43
10047.0,-1.33,-1.99,11.37
10060.0,-1.99,-1.96,10.26
10073.0,-1.67,-1.31,9.57
10086.0,-0.72,-0.44,9.33
10098.0,0.04,-0.03,9.41
10111.0,0.31,-0.34,10.05
10124.0,-0.04,-1.08,10.68
10137.0,-0.7,-1.91,11.28
10150.0,-1.36,-2.54,11.38
10163.0,-1.62,-2.74,10.89
10176.0,-1.54,-2.5,10.0
10189.0,-1.06,-1.69,8.58
10201.0,-0.24,-0.82,7.41
10214.0,0.57,-0.05,6.69
10227.0,0.97,0.0,7.37
10240.0,0.38,-1.36,9.31
10253.0,-0.94,-3.05,10.65
10266.0,-2.14,-3.69,10.23
10279.0,-2.94,-3.81,9.12
10291.0,-2.12,-3.12,7.78
10304.0,-0.73,-2.06,7.35
10317.0,0.44,-1.74,8.34
10330.0,0.78,-2.59,10.49
10343.0,-0.02,-3.9,11.67
10356.0,-0.95,-4.55,11.46
10369.0,-1.32,-4.43,10.75
10382.0,-1.38,-3.66,9.59
10394.0,-0.97,-3.05,9.13
10407.0,-0.37,-2.84,9.37
10420.0,0.01,-2.8,9.78
10433.0,-0.11,-2.91,10.0
10446.0,-0.67,-3.14,9.95
10459.0,-1.19,-3.21,9.83
10472.0,-1.55,-3.09,9.65
10485.0,-1.53,-2.97,9.72
10497.0,-1.05,-2.63,9.58
10510.0,-0.5,-2.06,9.18
10523.0,-0.08,-1.59,8.83
10536.0,0.19,-1.41,8.63
10549.0,-0.18,-1.64,8.97
10562.0,-0.84,-2.28,9.29
10575.0,-1.61,-2.86,9.29
10588.0,-2.11,-3.16,9.39
10600.0,-2.09,-3.44,9.97
10613.0,-1.67,-3.4,10.17
10626.0,-0.77,-2.94,10.04
10639.0,0.09,-2.31,9.74
10652.0,0.59,-1.85,9.41
10665.0,0.54,-1.64,9.24
10678.0,-0.12,-1.84,9.2
10690.0,-0.34,-2.08,9.36
10703.0,-0.06,-1.98,9.55
10716.0,0.64,-1.6,9.73
10729.0,1.26,-1.25,10.09
10742.0,1.55,-1.04,10.7
10755.0,1.34,-0.96,10.99
10768.0,0.59,-0.76,10.29
10781.0,-0.32,-0.31,8.99
10793.0,-1.02,0.2,8.22
10806.0,-1.36,0.44,8.23
10819.0,-1.55,0.36,8.72
10832.0,-1.83,0.21,9.03
10845.0,-1.94,0.31,8.8
10858.0,-1.65,0.58,8.77
10871.0,-1.04,0.85,9.45
10883.0,-0.54,0.98,10.41
10896.0,-0.39,1.06,10.99
10909.0,-0.44,1.34,10.85
10922.0,-0.73,1.69,10.68
10935.0,-1.08,1.8,10.93
10948.0,-1.27,1.57,11.64
10961.0,-1.33,1.45,12.18
10973.0,-1.3,1.47,12.42
10986.0,-1.02,1.71,12.52
10999.0,-0.69,1.84,12.74
11012.0,-0.51,1.92,13.02
11025.0,-0.09,1.85,13.47
11038.0,0.14,1.9,13.42
11051.0,0.01,2.06,12.77
11063.0,-0.23,2.16,11.96
11076.0,-0.58,2.23,11.32
11089.0,-0.67,2.32,10.82
11102.0,-0.5,2.29,10.68
11115.0,-0.38,2.09,10.87
11128.0,-0.45,1.75,11.41
11141.0,-0.87,1.18,11.68
11153.0,-1.53,0.73,11.3
11166.0,-1.9,0.68,10.54
11179.0,-1.62,0.95,9.84
11192.0,-0.89,1.27,9.48
11205.0,-0.37,1.43,9.64
11218.0,-0.07,1.4,9.35
11231.0,0.05,1.47,8.73
11243.0,0.29,1.6,8.26
11256.0,0.53,1.74,7.87
11269.0,0.82,1.39,8.86
11282.0,0.73,0.69,10.13
11295.0,0.01,-0.24,11.12
11308.0,-0.66,-1.02,11.25
11320.0,-0.96,-1.25,11.05
11333.0,-0.63,-0.46,10.06
11346.0,0.31,0.49,9.35
11359.0,1.0,1.2,9.21
11372.0,1.28,1.37,9.1
11385.0,1.21,1.27,9.33
11398.0,0.38,0.8,9.71
11410.0,-0.85,0.07,9.53
11423.0,-1.96,-0.62,9.33
11436.0,-2.37,-0.94,8.88
11449.0,-2.22,-0.82,8.91
11462.0,-2.0,-1.04,9.41
11475.0,-1.94,-1.68,10.26
11488.0,-1.94,-2.22,10.66
11501.0,-1.73,-2.27,10.37
11513.0,-1.31,-2.11,10.14
11526.0,-0.95,-2.03,9.95
11539.0,-0.65,-1.84,10.07
11552.0,-0.75,-2.16,10.5
11565.0,-1.28,-2.58,10.47
11578.0,-1.62,-2.71,9.98
11591.0,-1.47,-2.52,9.46
11604.0,-0.78,-2.19,9.08
11616.0,0.06,-1.9,8.87
11629.0,0.65,-1.56,8.8
11642.0,0.78,-1.72,9.46
11655.0,0.33,-2.54,10.34
11668.0,-0.42,-3.26,10.67
11681.0,-1.28,-3.52,10.21
11694.0,-1.77,-3.23,9.18
11706.0,-1.64,-2.93,8.75
11719.0,-1.18,-2.77,8.87
11732.0,-0.68,-2.71,9.13
11745.0,-0.45,-2.68,9.25
11758.0,-0.52,-2.66,9.16
11771.0,-0.69,-2.63,9.06
11784.0,-0.86,-2.61,9.18
11797.0,-1.03,-2.7,9.42
11809.0,-0.9,-2.72,9.62
11822.0,-0.47,-2.53,9.53
11835.0,0.17,-2.21,9.35
11848.0,0.72,-2.01,9.21
11861.0,0.93,-2.03,9.28
11874.0,0.64,-2.32,9.75
11887.0,0.03,-2.55,9.94
11899.0,-0.95,-2.49,9.72
11912.0,-1.75,-2.5,9.49
11925.0,-1.71,-2.46,9.49
11938.0,-1.42,-2.17,9.23
11951.0,-0.91,-1.83,9.22
11964.0,-0.56,-1.72,9.48
11977.0,-0.46,-1.93,9.96
11990.0,-0.94,-2.06,10.03
12002.0,-1.56,-2.03,9.59
12015.0,-1.95,-1.73,8.8
12028.0,-1.7,-1.21,8.33
12041.0,-0.74,-0.72,8.91
12054.0,0.29,-0.4,9.86
12067.0,1.08,-0.27,10.79
12080.0,1.6,-0.21,11.68
12093.0,1.85,-0.16,12.21
12105.0,1.74,-0.1,12.32
12118.0,1.09,-0.25,12.1
12131.0,-0.09,-0.47,11.64
12144.0,-1.56,-0.62,10.89
12157.0,-2.66,-0.49,9.98
12170.0,-3.07,0.04,9.4
12183.0,-2.85,0.72,9.28
12195.0,-2.23,1.22,9.81
12208.0,-1.65,1.4,10.66
12221.0,-1.31,1.42,11.12
12234.0,-1.34,1.66,10.93
12247.0,-1.56,1.95,10.64
12260.0,-1.93,2.04,10.48
12273.0,-2.37,1.98,10.62
12286.0,-2.86,1.98,10.57
12298.0,-3.09,2.24,10.31
12311.0,-2.96,2.42,10.52
12324.0,-2.83,2.37,11.07
12337.0,-2.71,2.06,11.55
12350.0,-2.69,1.62,11.82
12363.0,-2.57,1.4,11.62
12376.0,-2.38,1.48,11.21
12388.0,-2.11,1.69,10.73
12401.0,-1.91,1.95,10.24
12414.0,-1.75,2.19,9.86
12427.0,-1.69,2.09,9.96
12440.0,-1.59,1.74,10.12
12453.0,-1.54,1.46,10.01
12466.0,-1.37,1.54,9.45
12478.0,-0.69,1.67,9.31
12491.0,0.2,1.95,9.13
12504.0,0.82,2.31,9.11
12517.0,0.82,2.29,9.32
12530.0,0.14,1.61,9.6
12543.0,-0.81,0.37,10.35
12555.0,-1.61,-0.86,11.05
12568.0,-2.07,-1.45,11.09
12581.0,-1.97,-1.38,10.64
12594.0,-1.11,-0.89,10.18
12607.0,-0.09,-0.4,10.0
12620.0,0.6,-0.04,9.57
12633.0,0.55,0.08,9.29
12646.0,-0.1,-0.42,9.57
12658.0,-1.19,-1.61,10.33
12671.0,-2.04,-2.46,10.5
12684.0,-2.34,-2.69,10.07
12697.0,-1.8,-2.26,9.18
12710.0,-0.68,-1.29,8.12
12723.0,0.28,-0.56,7.62
12736.0,0.66,-0.64,8.16
12749.0,0.26,-1.42,9.6
12761.0,-0.89,-2.65,10.7
12774.0,-2.13,-3.44,10.75
12787.0,-2.64,-3.64,10.33
12800.0,-2.29,-3.65,10.25
12813.0,-1.38,-3.26,9.98
12826.0,-0.57,-2.58,9.64
12839.0,-0.25,-2.26,9.64
12851.0,-0.41,-2.51,9.85
