timestamp,accX,accY,accZ
2.0,0.59,3.07,11.73
15.0,0.65,2.49,9.54
28.0,1.0,3.11,11.0
41.0,1.27,3.37,10.94
54.0,1.38,3.45,10.72
66.0,1.26,3.2,10.48
79.0,1.1,2.84,10.17
92.0,1.0,2.46,9.84
105.0,0.99,2.1,9.53
118.0,0.81,1.91,9.04
131.0,0.79,1.85,8.49
143.0,1.76,1.27,9.62
156.0,2.57,0.09,12.55
169.0,2.59,-1.12,14.02
182.0,2.04,-1.85,13.67
195.0,1.6,-2.0,12.65
208.0,1.36,-1.87,11.48
221.0,1.23,-1.69,10.06
233.0,1.12,-1.5,8.89
246.0,1.38,-1.5,8.68
259.0,1.75,-1.59,8.64
272.0,1.94,-2.26,10.0
285.0,1.63,-3.03,11.51
298.0,0.68,-3.51,11.16
311.0,-0.24,-3.68,10.03
323.0,-0.41,-3.56,8.83
336.0,-0.14,-3.65,8.08
349.0,0.19,-4.07,8.22
362.0,0.21,-4.53,8.67
375.0,-0.05,-5.03,9.15
388.0,-0.41,-5.32,9.09
401.0,-0.76,-5.58,8.59
414.0,-0.9,-5.59,7.88
426.0,-0.8,-5.54,7.63
439.0,-0.65,-5.6,7.76
452.0,-0.57,-5.8,8.07
465.0,-0.69,-6.31,8.77
478.0,-0.91,-6.8,9.33
491.0,-1.18,-7.16,9.53
504.0,-1.2,-7.16,9.48
517.0,-0.91,-6.86,9.39
529.0,-0.25,-6.33,9.09
542.0,0.4,-5.76,8.79
555.0,1.14,-5.35,8.9
568.0,1.69,-4.98,8.86
581.0,1.66,-4.86,8.88
594.0,1.47,-4.81,9.16
607.0,1.27,-4.49,8.96
619.0,0.98,-4.12,8.77
632.0,0.56,-3.93,8.74
645.0,0.14,-3.57,8.37
658.0,0.03,-3.16,8.5
671.0,-0.09,-2.79,8.47
684.0,-0.42,-2.67,8.91
697.0,-0.57,-2.28,9.04
710.0,-0.12,-1.65,9.04
722.0,0.45,-0.91,9.73
735.0,1.15,-0.16,10.25
748.0,1.64,0.64,10.77
761.0,1.84,1.23,11.44
774.0,1.74,1.69,11.99
787.0,1.05,1.94,12.29
799.0,0.25,2.28,11.67
812.0,-0.41,2.82,10.89
825.0,-0.76,3.33,10.46
838.0,-0.74,3.54,10.77
851.0,-0.32,3.87,11.3
864.0,0.08,4.48,11.09
877.0,0.23,4.89,10.97
889.0,0.52,5.13,11.22
902.0,0.72,5.3,11.27
915.0,0.68,5.18,11.54
928.0,0.38,4.87,11.73
941.0,0.16,4.6,11.94
954.0,-0.04,4.32,11.94
967.0,-0.12,4.05,11.68
979.0,-0.36,3.84,11.18
992.0,-0.41,3.8,10.49
1005.0,-0.29,3.69,10.37
1018.0,-0.06,3.56,10.52
1031.0,0.12,3.46,10.77
1044.0,0.16,3.14,11.19
1056.0,0.24,2.74,11.3
1069.0,0.34,2.55,10.99
1082.0,0.64,2.63,10.46
1095.0,1.31,3.18,9.82
1108.0,1.93,3.48,9.63
1121.0,2.04,3.44,9.4
1134.0,1.44,2.77,9.43
1146.0,0.49,1.82,9.28
1159.0,0.04,1.13,8.93
1172.0,0.22,0.51,9.44
1185.0,0.6,-0.16,10.34
1198.0,0.69,-1.1,11.59
1211.0,0.16,-2.33,12.33
1223.0,-0.53,-3.25,12.15
1236.0,-0.8,-3.56,11.41
1249.0,-0.37,-3.32,10.08
1262.0,0.52,-2.74,8.89
1275.0,1.73,-2.04,7.99
1288.0,2.05,-2.55,8.91
1301.0,1.3,-3.88,10.32
1314.0,0.28,-5.21,10.59
1326.0,-0.34,-5.9,10.6
1339.0,-0.44,-5.75,9.92
1352.0,0.15,-5.12,8.89
1365.0,0.82,-4.41,8.12
1378.0,1.42,-4.12,8.45
1391.0,1.36,-4.16,8.77
1404.0,0.86,-4.55,9.24
1416.0,-0.12,-5.27,9.66
1429.0,-1.17,-5.82,9.37
1442.0,-1.6,-6.03,9.06
1455.0,-1.27,-5.74,9.23
1468.0,-1.01,-5.46,8.24
1481.0,-0.27,-4.63,7.8
1494.0,0.5,-4.08,7.99
1507.0,1.03,-3.77,7.95
1519.0,1.69,-3.43,8.03
1532.0,2.11,-3.21,8.47
1545.0,1.92,-3.44,9.48
1558.0,1.1,-3.64,9.38
1571.0,0.22,-3.49,8.44
1584.0,-0.39,-3.27,7.79
1597.0,-0.69,-3.18,7.9
1609.0,-0.45,-3.07,8.68
1622.0,-0.13,-2.9,9.69
1635.0,-0.23,-2.81,10.56
1648.0,-0.47,-2.48,10.53
1661.0,-0.56,-1.96,10.25
1674.0,-0.25,-1.35,10.3
1687.0,0.12,-0.69,10.4
1700.0,0.22,-0.03,10.32
1712.0,0.03,0.42,10.51
1725.0,-0.33,0.88,10.41
1738.0,-0.49,1.26,10.65
1751.0,-0.38,1.4,11.04
1764.0,0.17,1.54,11.44
1777.0,0.87,1.86,12.11
1789.0,1.68,2.39,12.67
1802.0,2.08,3.07,12.61
1815.0,2.23,3.67,12.37
1828.0,2.46,4.32,12.06
1841.0,2.46,5.03,11.74
1854.0,2.01,5.32,11.63
1867.0,1.1,5.01,11.77
1879.0,0.07,4.47,11.54
1892.0,-0.42,3.94,11.92
1905.0,-0.53,3.58,12.16
1918.0,-0.34,3.39,12.15
1931.0,0.1,3.21,12.16
1944.0,0.57,3.11,11.96
1956.0,0.84,3.11,11.52
1969.0,1.09,3.19,11.19
1982.0,1.31,3.36,10.52
1995.0,1.46,3.57,9.76
2008.0,1.52,3.49,9.42
2021.0,1.41,3.09,9.33
2034.0,1.32,2.63,9.39
2046.0,1.29,2.29,9.47
2059.0,1.42,2.02,9.38
2072.0,1.61,1.93,9.04
2085.0,1.93,1.87,8.91
2098.0,2.34,1.83,8.94
2111.0,2.58,1.73,9.0
2123.0,2.4,1.35,9.12
2136.0,2.04,0.73,9.45
2149.0,1.65,0.07,9.52
2162.0,1.25,-0.66,9.83
2175.0,1.07,-1.42,9.93
2188.0,0.77,-2.28,10.85
2201.0,0.4,-2.92,11.45
2213.0,0.21,-3.25,11.55
2226.0,-0.1,-3.65,11.46
2239.0,-0.49,-4.02,10.98
2252.0,-0.63,-4.03,10.15
2265.0,-0.14,-3.41,8.67
2278.0,0.94,-2.41,7.59
2291.0,1.7,-2.28,8.51
2303.0,1.6,-3.05,10.14
2316.0,0.53,-4.15,10.63
2329.0,-0.75,-5.25,10.84
2342.0,-1.46,-5.63,10.33
2355.0,-0.94,-5.22,9.65
2368.0,-0.16,-4.43,8.87
2381.0,0.3,-4.07,9.11
2394.0,-0.3,-4.52,9.81
2406.0,-1.19,-5.21,10.3
2419.0,-1.89,-5.74,10.46
2432.0,-2.35,-5.82,9.96
2445.0,-2.24,-5.51,9.13
2458.0,-1.57,-4.87,8.46
2471.0,-0.4,-4.07,8.02
2484.0,0.75,-3.32,7.76
2497.0,1.51,-3.13,8.13
2509.0,1.86,-3.21,9.02
2522.0,1.61,-3.52,9.76
2535.0,1.04,-3.51,9.7
2548.0,0.4,-3.46,9.42
2561.0,-0.19,-3.25,8.81
2574.0,-0.52,-3.03,8.69
2587.0,-0.31,-2.5,8.45
2599.0,-0.04,-1.81,8.3
2612.0,0.42,-1.3,8.66
2625.0,0.75,-0.98,9.17
2638.0,0.97,-0.89,9.83
2651.0,0.82,-0.73,10.27
2664.0,0.47,-0.51,9.86
2677.0,0.17,-0.2,9.53
2689.0,0.21,0.14,9.64
2702.0,0.53,0.59,10.13
2715.0,0.96,1.07,10.65
2728.0,1.17,1.6,11.2
2741.0,1.36,2.01,11.42
2754.0,1.69,2.6,11.64
2767.0,1.65,3.13,11.48
2779.0,1.2,3.69,10.65
2792.0,0.63,4.09,10.13
2805.0,0.43,4.41,10.1
2818.0,0.9,4.7,10.93
2831.0,1.46,4.91,12.12
2844.0,1.63,4.94,12.72
2856.0,1.35,4.89,12.69
2869.0,0.95,4.75,12.49
2882.0,0.82,4.56,12.65
2895.0,0.96,4.1,13.29
2908.0,0.97,3.59,13.48
2921.0,0.51,3.27,12.64
2933.0,-0.2,3.07,11.5
2946.0,-0.68,3.11,10.58
2959.0,-0.84,3.2,10.18
2972.0,-0.85,3.35,9.85
2985.0,-0.69,3.34,9.56
2998.0,-0.52,2.95,9.71
3011.0,-0.35,2.64,9.7
3023.0,-0.25,2.4,9.37
3036.0,0.11,2.1,9.48
3049.0,0.51,2.1,9.27
3062.0,0.92,2.22,8.73
3075.0,1.02,2.18,8.84
3088.0,0.72,1.98,8.91
3101.0,0.33,1.68,8.71
3113.0,0.12,1.43,8.57
3126.0,0.67,1.01,8.84
3139.0,1.87,0.49,10.44
3152.0,2.78,-0.14,12.51
3165.0,2.53,-0.85,12.75
3178.0,1.49,-1.64,12.13
3190.0,0.45,-2.1,10.93
3203.0,-0.76,-2.95,10.26
3216.0,-1.42,-3.63,10.0
3229.0,-1.78,-3.94,9.37
3242.0,-1.54,-4.17,8.75
3255.0,-0.74,-4.31,9.17
3268.0,0.21,-4.22,9.99
3281.0,0.59,-3.99,9.45
3293.0,0.34,-4.13,9.09
3306.0,-0.18,-4.62,9.02
3319.0,-0.7,-5.24,9.42
3332.0,-0.94,-5.66,9.89
3345.0,-0.96,-5.72,10.02
3358.0,-0.87,-5.59,9.56
3371.0,-0.77,-5.27,9.06
3384.0,-0.67,-5.17,9.05
3396.0,-0.71,-5.07,8.85
3409.0,-1.03,-5.05,8.62
3422.0,-1.48,-5.04,8.33
3435.0,-1.39,-4.87,8.03
3448.0,-0.67,-4.41,7.79
3461.0,0.18,-3.94,7.92
3474.0,0.81,-3.64,8.0
3487.0,1.18,-3.52,8.22
3499.0,1.15,-3.41,8.23
3512.0,1.15,-3.28,7.95
3525.0,1.22,-3.15,7.83
3538.0,1.53,-3.1,8.0
3551.0,1.73,-2.76,7.71
3564.0,1.94,-2.28,7.91
3577.0,2.14,-1.91,8.32
3589.0,2.06,-1.85,9.22
3602.0,1.63,-2.04,9.9
3615.0,0.75,-2.17,9.94
3628.0,-0.89,-2.61,10.01
3641.0,-2.12,-2.86,10.37
3654.0,-2.27,-2.23,10.39
3667.0,-1.66,-1.24,10.54
3679.0,-0.54,-0.35,11.53
3692.0,0.18,0.42,12.96
3705.0,0.55,1.14,13.16
3718.0,0.63,1.95,12.7
3731.0,0.88,2.77,12.37
3744.0,1.13,3.32,12.83
3757.0,1.22,3.8,13.15
3769.0,0.98,4.1,13.31
3782.0,0.47,3.96,13.39
3795.0,-0.1,3.74,13.37
3808.0,-0.41,3.59,13.53
3821.0,-0.45,3.72,13.29
3834.0,-0.32,3.8,13.21
3846.0,-0.38,3.83,12.74
3859.0,-0.37,3.79,12.22
3872.0,-0.27,3.43,12.19
3885.0,-0.21,3.17,11.83
3898.0,-0.18,3.14,11.15
3911.0,-0.06,3.2,10.63
3924.0,0.08,3.44,10.57
3936.0,0.22,3.88,9.81
3949.0,0.49,4.29,9.16
3962.0,0.71,4.16,9.55
3975.0,0.98,3.57,10.75
3988.0,0.96,2.71,11.48
4001.0,0.5,1.86,11.22
4014.0,-0.27,1.1,10.19
4026.0,-0.67,0.55,9.18
4039.0,-0.16,0.79,7.85
4052.0,0.97,1.7,6.97
4065.0,2.67,2.91,5.94
4078.0,4.02,3.26,6.92
4091.0,4.7,2.54,8.99
4103.0,4.05,1.5,9.75
4116.0,2.54,0.35,8.88
4129.0,1.28,-0.61,8.25
4142.0,0.64,-1.42,7.89
4155.0,0.48,-2.06,7.98
4168.0,0.43,-2.81,8.6
4181.0,0.35,-3.69,9.72
4193.0,0.1,-4.42,10.26
4206.0,-0.52,-5.17,10.43
4219.0,-1.01,-5.74,10.14
4232.0,-1.06,-5.87,9.22
4245.0,-0.57,-5.92,8.73
4258.0,0.09,-6.05,9.21
4271.0,0.69,-6.22,9.74
4284.0,0.79,-6.69,10.55
4296.0,0.6,-7.25,11.37
4309.0,0.12,-7.78,11.65
4322.0,-0.46,-8.01,11.79
4335.0,-0.84,-7.91,11.08
4348.0,-0.97,-7.52,10.49
4361.0,-0.98,-7.16,10.26
4374.0,-1.03,-6.7,9.73
4386.0,-1.2,-6.25,9.13
4399.0,-1.32,-5.79,8.49
4412.0,-1.14,-5.29,7.81
4425.0,-0.91,-4.91,7.42
4438.0,-0.57,-4.74,7.52
4451.0,-0.23,-4.67,7.72
4464.0,0.07,-4.53,8.06
4477.0,0.09,-4.48,8.47
4489.0,0.02,-4.22,8.38
4502.0,-0.07,-3.63,8.24
4515.0,-0.28,-3.15,8.06
4528.0,-0.59,-2.49,7.27
4541.0,-0.75,-1.86,7.0
4554.0,-0.43,-1.33,7.17
4567.0,-0.04,-0.87,7.57
4580.0,0.4,-0.72,8.27
4592.0,0.86,-0.47,8.63
4605.0,1.22,-0.11,8.93
4618.0,1.55,0.28,9.01
4631.0,1.79,0.76,9.19
4644.0,1.99,1.07,9.94
4657.0,1.94,1.11,11.01
4669.0,1.58,1.28,11.11
4682.0,1.06,1.5,10.99
4695.0,0.66,1.62,11.28
4708.0,0.38,1.84,11.81
4721.0,0.44,2.35,12.13
4734.0,0.71,2.93,12.29
4747.0,1.09,3.34,12.62
4759.0,1.5,3.51,13.71
4772.0,1.68,3.81,14.15
4785.0,1.5,3.91,14.24
4798.0,1.11,4.03,13.96
4811.0,0.8,4.17,13.67
4824.0,0.5,4.01,13.75
4836.0,0.13,3.65,13.93
4849.0,-0.16,3.42,13.76
4862.0,-0.32,3.37,13.21
4875.0,-0.35,3.42,12.47
4888.0,-0.2,3.53,11.84
4901.0,-0.05,3.59,11.23
4914.0,0.15,3.55,10.89
4926.0,0.49,3.31,11.04
4939.0,0.79,3.0,11.54
4952.0,0.87,2.71,11.42
4965.0,0.62,2.44,10.8
4978.0,0.33,2.27,10.18
4991.0,0.03,2.27,9.17
5003.0,0.04,2.32,8.65
5016.0,0.36,2.54,7.82
5029.0,0.72,2.69,7.22
5042.0,1.67,2.53,7.78
5055.0,2.46,1.63,10.19
5068.0,2.2,0.6,11.92
5081.0,2.34,-0.68,11.88
5093.0,1.87,-1.5,11.46
5106.0,1.25,-1.86,10.83
5119.0,1.05,-2.11,10.03
5132.0,1.04,-2.21,9.35
5145.0,0.86,-2.37,8.83
5158.0,0.83,-2.86,8.84
5171.0,0.74,-3.52,9.68
5183.0,0.16,-4.26,9.69
5196.0,-0.53,-4.75,8.83
5209.0,-0.82,-4.73,7.75
5222.0,-0.32,-4.46,7.39
5235.0,0.56,-4.19,7.75
5248.0,1.13,-4.51,9.05
5261.0,1.12,-5.17,10.06
5273.0,0.48,-5.77,9.86
5286.0,-0.33,-6.24,9.47
5299.0,-0.92,-6.57,9.27
5312.0,-0.85,-6.48,9.14
5325.0,-0.46,-6.34,9.37
5338.0,-0.07,-6.3,9.74
5351.0,0.0,-6.2,9.66
5364.0,-0.27,-6.17,9.4
5376.0,-0.21,-5.89,8.97
5389.0,0.56,-5.37,8.81
5402.0,1.59,-4.66,8.94
5415.0,2.42,-4.1,8.92
5428.0,2.89,-3.65,8.78
5441.0,2.92,-3.25,8.34
5454.0,2.09,-3.22,8.42
5466.0,0.8,-3.49,8.78
5479.0,0.06,-3.49,8.76
5492.0,-0.21,-3.12,8.57
5505.0,-0.12,-2.53,8.43
5518.0,-0.11,-1.68,7.9
5531.0,-0.41,-1.16,8.0
5544.0,-0.62,-0.83,8.6
5557.0,-0.54,-0.52,9.2
5569.0,-0.35,-0.06,9.02
5582.0,-0.07,0.51,8.55
5595.0,0.31,1.07,8.54
5608.0,0.74,1.29,9.38
5621.0,0.69,0.96,10.92
5634.0,0.16,0.66,11.99
5646.0,-0.29,0.87,11.86
5659.0,-0.35,1.46,11.58
5672.0,0.01,2.15,11.35
5685.0,0.73,2.79,11.8
5698.0,1.59,3.19,12.82
5711.0,2.2,3.63,13.34
5724.0,2.72,3.95,13.39
5736.0,2.8,4.16,13.41
5749.0,2.74,4.45,13.03
5762.0,2.44,4.73,12.62
5775.0,1.87,4.95,11.95
5788.0,1.22,5.17,11.04
5801.0,0.9,5.24,10.8
5813.0,0.68,5.19,10.52
5826.0,0.55,5.02,10.35
5839.0,0.44,4.67,10.4
5852.0,0.27,4.26,10.34
5865.0,0.18,3.98,10.24
5878.0,0.33,3.94,9.96
5891.0,0.73,3.97,9.73
5903.0,1.25,3.65,10.28
5916.0,1.31,3.0,10.96
5929.0,0.89,2.18,11.24
5942.0,0.48,1.73,10.73
5955.0,0.46,1.76,9.72
5968.0,0.95,2.13,8.72
5980.0,1.57,2.23,8.75
5993.0,1.65,1.78,9.39
6006.0,1.28,0.72,10.21
6019.0,0.84,-0.44,11.06
6032.0,0.91,-1.17,11.34
6045.0,0.85,-1.76,11.14
6058.0,1.0,-1.9,10.29
6070.0,1.32,-1.62,9.16
6083.0,2.17,-1.03,8.35
6096.0,3.09,-0.51,7.84
6109.0,3.68,-0.61,8.29
6122.0,3.51,-1.24,8.99
6135.0,2.86,-2.12,9.54
6148.0,2.01,-2.93,9.49
6160.0,1.59,-3.64,9.74
6173.0,1.4,-4.08,9.81
6186.0,1.47,-4.51,9.83
6199.0,1.61,-4.94,10.27
6212.0,1.79,-5.27,10.48
6225.0,1.89,-5.58,10.64
6238.0,1.65,-6.21,11.36
6250.0,1.05,-6.73,11.82
6263.0,0.59,-6.88,11.55
6276.0,-0.08,-6.94,10.82
6289.0,-0.09,-6.58,10.11
6302.0,0.34,-5.89,9.24
6315.0,0.8,-5.29,8.68
6328.0,0.96,-4.87,8.27
6340.0,0.93,-4.66,8.32
6353.0,0.71,-4.5,8.37
6366.0,0.67,-4.35,8.5
6379.0,0.8,-4.19,8.5
6392.0,1.02,-3.99,8.16
6405.0,0.92,-3.99,7.8
6418.0,0.32,-4.52,8.2
6430.0,-0.27,-5.14,9.27
6443.0,-0.55,-5.45,9.68
6456.0,-0.29,-5.44,9.88
6469.0,0.15,-4.94,9.54
6482.0,0.82,-4.15,8.85
6495.0,1.5,-3.19,7.9
6508.0,2.16,-2.41,7.78
6520.0,2.48,-1.95,8.59
6533.0,2.29,-1.76,9.47
6546.0,1.56,-1.76,9.91
6559.0,0.91,-1.35,9.52
6572.0,0.63,-0.66,8.94
6585.0,0.6,0.17,8.57
6598.0,0.72,0.81,8.89
6610.0,0.96,1.28,9.33
6623.0,0.91,1.62,9.56
6636.0,0.72,1.9,9.48
6649.0,0.56,2.24,9.25
6662.0,0.55,2.56,9.64
6675.0,0.51,2.78,10.29
6688.0,0.43,3.04,10.6
6700.0,0.55,3.36,10.65
6713.0,0.92,3.44,11.24
6726.0,1.11,3.44,12.02
6739.0,1.07,3.0,13.32
6752.0,0.68,2.32,14.7
6765.0,-0.07,1.75,15.02
6777.0,-0.74,1.62,14.36
6790.0,-1.15,1.72,13.18
6803.0,-1.1,1.89,12.19
6816.0,-0.69,2.12,11.97
6829.0,0.02,2.34,11.99
6842.0,0.5,2.55,11.66
6855.0,0.58,2.52,11.04
6867.0,0.48,2.26,10.92
6880.0,0.57,2.16,10.67
6893.0,0.92,2.3,10.57
6906.0,1.46,2.52,10.34
6919.0,1.89,2.74,9.73
6932.0,2.12,2.81,9.09
6944.0,2.28,2.57,9.28
6957.0,2.16,2.22,9.55
6970.0,1.85,1.82,9.8
6983.0,1.64,1.41,9.88
6996.0,1.55,0.87,10.14
7009.0,1.44,0.06,10.78
7022.0,1.0,-0.95,11.37
7034.0,0.35,-1.96,11.61
7047.0,-0.26,-2.53,11.08
7060.0,-0.33,-2.56,10.12
7073.0,0.27,-2.36,9.26
7086.0,0.7,-2.41,9.1
7099.0,0.63,-2.93,9.45
7112.0,0.25,-3.47,9.5
7124.0,-0.08,-3.76,9.5
7137.0,-0.22,-3.65,9.14
7150.0,-0.22,-3.65,8.77
7163.0,-0.23,-3.84,8.23
7176.0,-0.51,-4.52,8.2
7189.0,-0.67,-5.49,9.13
7202.0,-0.75,-5.97,9.9
7215.0,-0.5,-5.93,10.07
7227.0,-0.66,-5.98,9.71
7240.0,-0.7,-6.25,9.6
7253.0,-0.88,-6.79,10.11
7266.0,-0.85,-7.04,10.66
7279.0,-0.89,-6.96,10.63
7292.0,-0.8,-6.58,9.87
7305.0,-0.41,-6.1,9.14
7318.0,0.2,-5.64,8.84
7330.0,0.8,-5.14,8.57
7343.0,1.17,-4.79,8.57
7356.0,1.6,-4.59,9.0
7369.0,1.84,-4.49,9.45
7382.0,1.73,-4.48,9.58
7395.0,1.46,-4.59,9.68
7408.0,1.01,-4.53,9.99
7420.0,0.17,-4.5,10.29
7433.0,-0.4,-4.36,10.14
7446.0,-0.72,-3.89,9.67
7459.0,-0.62,-3.57,10.1
7472.0,-0.04,-2.85,9.71
7485.0,0.74,-1.7,8.97
7498.0,1.41,-0.89,8.84
7510.0,1.69,-0.23,8.68
7523.0,1.66,0.23,8.5
7536.0,1.33,0.58,8.23
7549.0,1.07,0.73,8.19
7562.0,0.88,0.89,8.32
7575.0,0.8,1.06,8.61
7588.0,0.83,1.44,8.45
7600.0,0.93,1.83,8.37
7613.0,1.29,2.22,8.7
7626.0,1.73,2.7,8.92
7639.0,1.82,2.96,9.09
7652.0,1.89,3.25,9.2
7665.0,1.87,3.57,9.28
7677.0,1.67,3.69,9.72
7690.0,1.52,3.61,10.5
7703.0,1.24,3.27,11.68
7716.0,0.71,2.9,12.28
7729.0,0.31,2.65,12.69
7742.0,-0.27,2.53,13.07
7754.0,-0.69,2.42,13.12
7767.0,-0.93,2.5,13.0
7780.0,-0.87,2.52,13.08
7793.0,-0.61,2.69,12.8
7806.0,-0.31,3.05,12.19
7819.0,-0.03,3.41,11.58
7832.0,0.23,3.59,11.15
7844.0,0.36,3.51,11.02
7857.0,0.42,3.05,11.51
7870.0,0.27,2.41,12.13
7883.0,-0.02,2.06,11.89
7896.0,-0.31,1.84,11.31
7909.0,-0.3,1.66,10.76
7922.0,-0.03,1.55,10.33
7934.0,0.21,1.43,9.97
7947.0,0.3,1.01,9.93
7960.0,0.36,0.83,9.88
7973.0,0.45,0.75,9.37
7986.0,0.54,0.71,8.65
7999.0,0.97,0.71,8.66
8012.0,1.63,0.3,9.67
8024.0,1.91,-0.65,11.29
8037.0,1.26,-1.71,12.24
8050.0,0.39,-2.87,12.31
8063.0,-0.53,-3.48,11.72
8076.0,-0.9,-3.66,11.03
8089.0,-0.13,-3.15,10.04
8102.0,0.92,-2.58,9.64
8114.0,1.16,-2.77,10.23
8127.0,0.68,-3.52,10.93
8140.0,-0.23,-4.37,11.01
8153.0,-0.77,-4.86,10.47
8166.0,-0.64,-4.8,9.42
8179.0,0.02,-4.49,8.51
8192.0,1.21,-4.03,8.09
8204.0,1.79,-3.97,8.76
8217.0,1.68,-4.48,9.36
8230.0,0.94,-5.27,9.86
8243.0,-0.33,-6.11,10.05
8256.0,-1.18,-6.65,9.87
8269.0,-1.57,-6.66,9.42
8282.0,-1.26,-6.19,8.85
8295.0,-0.64,-5.42,7.99
8307.0,0.06,-4.71,7.66
8320.0,0.53,-4.3,7.61
8333.0,0.74,-4.11,7.72
8346.0,0.8,-4.0,7.73
8359.0,0.67,-4.07,7.98
8372.0,0.57,-4.07,8.27
8385.0,0.54,-3.82,7.97
8397.0,0.59,-3.49,8.0
8410.0,0.55,-3.28,8.28
8423.0,0.41,-3.09,8.48
8436.0,0.18,-2.83,8.23
8449.0,0.1,-2.42,7.74
8462.0,0.4,-1.79,7.69
8475.0,1.08,-1.23,8.25
8487.0,1.25,-0.67,8.98
8500.0,0.85,-0.29,8.89
8513.0,0.59,0.2,8.49
8526.0,0.95,0.74,8.86
8539.0,1.38,1.21,9.69
8552.0,1.47,1.49,10.7
8564.0,1.19,1.65,11.45
8577.0,0.6,1.8,11.89
8590.0,-0.14,2.03,12.07
8603.0,-1.16,2.31,12.02
8616.0,-2.03,2.57,12.12
8629.0,-2.43,2.75,12.38
8642.0,-2.32,3.1,12.88
8654.0,-1.98,3.4,13.5
8667.0,-1.56,3.6,14.0
8680.0,-1.24,3.87,14.03
8693.0,-1.08,4.11,13.88
8706.0,-1.07,4.27,13.51
8719.0,-1.03,4.21,13.38
8732.0,-1.07,3.85,13.49
8744.0,-1.11,3.59,13.28
8757.0,-1.1,3.47,12.5
8770.0,-0.99,3.45,11.55
8783.0,-0.59,3.4,10.96
8796.0,-0.03,3.41,10.82
8809.0,0.59,3.52,10.54
8822.0,1.18,3.67,10.28
8834.0,1.45,3.7,9.68
8847.0,1.32,3.61,9.14
8860.0,1.06,3.21,8.56
8873.0,0.95,2.86,8.51
8886.0,1.04,2.5,8.76
8899.0,1.08,2.06,9.0
8912.0,0.7,1.71,8.6
8924.0,0.78,1.41,8.28
8937.0,1.27,1.25,8.35
8950.0,2.17,1.35,8.79
8963.0,2.63,1.02,9.49
8976.0,2.21,0.01,10.43
8989.0,1.5,-1.16,11.08
9001.0,0.45,-2.25,11.16
9014.0,-0.52,-3.05,10.72
9027.0,-0.8,-3.35,9.6
9040.0,0.05,-2.89,8.35
9053.0,1.62,-2.16,8.02
9066.0,2.65,-1.81,8.1
9079.0,2.2,-2.55,8.8
9091.0,1.03,-3.88,9.45
9104.0,-0.48,-5.34,10.38
9117.0,-1.54,-6.31,10.8
9130.0,-1.72,-6.46,10.38
9143.0,-0.85,-5.83,9.26
9156.0,0.28,-5.24,8.49
9169.0,0.6,-5.33,8.99
9182.0,0.11,-5.92,9.52
9194.0,-0.87,-6.79,9.82
9207.0,-1.65,-7.87,10.69
9220.0,-2.51,-8.58,10.96
9233.0,-2.89,-8.86,10.86
9246.0,-2.55,-8.52,10.41
9259.0,-1.34,-7.49,9.23
9272.0,0.18,-6.22,8.38
9285.0,1.39,-5.2,7.86
9297.0,2.15,-4.52,8.01
9310.0,2.45,-4.07,8.01
9323.0,2.13,-3.78,7.87
9336.0,1.34,-3.86,7.82
9349.0,0.62,-3.86,7.8
9362.0,0.35,-3.71,8.15
9375.0,0.51,-3.59,8.88
9387.0,0.64,-3.54,9.86
9400.0,0.62,-3.23,9.94
9413.0,0.48,-2.76,9.87
9426.0,0.69,-2.03,9.51
9439.0,1.05,-1.06,8.81
9452.0,1.3,-0.28,8.55
9465.0,1.32,0.27,8.64
9477.0,1.17,0.77,8.8
9490.0,0.66,1.11,9.12
9503.0,0.16,1.21,9.29
9516.0,-0.23,1.38,9.25
9529.0,-0.21,1.67,9.49
9542.0,0.01,1.86,10.15
9554.0,0.28,2.07,10.88
9567.0,0.66,2.6,11.25
9580.0,0.96,3.0,11.57
9593.0,1.18,3.16,12.19
9606.0,1.13,2.95,12.82
9619.0,1.11,2.94,13.01
9632.0,0.99,3.04,13.27
9644.0,0.9,3.09,13.4
9657.0,0.76,3.41,13.18
9670.0,0.59,3.6,12.96
9683.0,0.21,3.44,13.07
9696.0,-0.21,3.08,13.14
9709.0,-0.5,2.76,13.04
9721.0,-0.57,2.63,12.73
9734.0,-0.39,2.71,12.36
9747.0,-0.1,3.0,11.89
9760.0,0.11,3.43,11.01
9773.0,0.23,3.77,10.22
9786.0,0.32,3.7,10.35
9799.0,0.36,3.32,10.97
9811.0,0.18,2.7,11.39
9824.0,0.02,2.2,11.27
9837.0,-0.37,1.86,10.63
9850.0,-0.42,1.65,9.62
9863.0,0.21,1.83,9.46
9876.0,1.02,2.0,9.58
9888.0,1.39,1.73,10.07
9901.0,1.28,0.78,10.67
9914.0,0.88,-0.27,10.97
9927.0,1.01,-0.91,11.61
9940.0,1.81,-0.97,12.22
9953.0,2.3,-0.89,11.99
9966.0,2.06,-1.1,11.21
9978.0,1.27,-1.64,10.09
9991.0,0.27,-2.32,8.78
10004.0,0.11,-2.68,8.0
10017.0,0.46,-2.67,7.67
10030.0,1.24,-2.66,8.24
10043.0,1.34,-3.17,9.38
10056.0,0.02,-4.27,9.91
10068.0,-1.51,-5.45,9.76
10081.0,-2.12,-6.1,9.51
10094.0,-1.71,-6.03,8.98
10107.0,-0.63,-5.54,8.78
10120.0,0.41,-4.76,8.28
10133.0,0.74,-4.37,7.8
10146.0,0.63,-4.66,8.09
10159.0,0.16,-5.44,8.92
10171.0,-0.83,-6.57,9.9
10184.0,-1.94,-7.62,10.38
10197.0,-2.59,-8.05,10.21
10210.0,-2.55,-7.84,9.93
10223.0,-1.79,-7.11,9.33
10236.0,-0.43,-5.98,8.71
10249.0,0.72,-4.98,8.32
10261.0,1.45,-4.18,8.0
10274.0,1.52,-4.04,8.32
10287.0,1.07,-4.04,8.26
10300.0,0.53,-3.96,7.83
10313.0,0.19,-3.7,7.6
10326.0,-0.04,-3.46,7.71
10339.0,0.0,-3.08,7.36
10352.0,0.06,-2.77,7.56
10364.0,0.13,-2.57,8.07
10377.0,0.08,-2.3,8.38
10390.0,0.08,-1.95,8.81
10403.0,0.32,-1.46,8.55
10416.0,0.88,-0.78,8.32
10429.0,1.46,-0.31,8.78
10442.0,2.05,0.13,9.38
10454.0,2.22,0.48,9.9
10467.0,2.02,0.79,10.08
10480.0,1.56,1.2,9.86
10493.0,1.19,1.78,9.69
10506.0,1.17,2.2,10.03
10519.0,1.08,2.51,10.71
10531.0,0.71,2.6,11.71
10544.0,0.31,2.85,12.37
10557.0,0.06,3.06,13.05
10570.0,-0.12,3.19,13.58
10583.0,0.2,3.45,13.83
10596.0,0.3,3.73,14.05
10608.0,0.32,3.74,14.91
10621.0,0.02,3.73,15.2
10634.0,-0.39,3.65,15.15
10647.0,-0.72,3.48,15.0
10660.0,-1.08,3.24,14.56
10673.0,-1.41,2.83,14.41
10686.0,-1.66,2.57,13.9
10698.0,-1.73,2.61,12.94
10711.0,-1.54,2.8,11.8
10724.0,-1.04,3.24,10.4
10737.0,-0.4,3.77,9.55
10750.0,0.16,3.8,9.54
10763.0,0.48,3.47,9.7
10776.0,0.52,2.98,9.82
10788.0,0.31,2.34,9.76
10801.0,0.18,2.1,8.91
10814.0,0.5,2.26,8.19
10827.0,1.05,2.33,7.92
10840.0,1.32,1.79,8.76
10853.0,1.66,1.2,9.57
10865.0,1.29,0.59,9.38
10878.0,0.63,-0.13,9.2
10891.0,0.27,-0.83,9.02
10904.0,0.18,-1.43,8.8
10917.0,0.5,-1.89,8.36
10930.0,1.31,-2.14,8.35
10943.0,1.7,-2.66,9.26
10955.0,1.24,-3.94,10.41
10968.0,0.19,-5.2,10.95
10981.0,-0.87,-6.27,10.76
10994.0,-1.06,-6.8,10.6
11007.0,-0.41,-6.72,9.98
11020.0,0.32,-6.47,9.45
11033.0,0.72,-6.41,9.46
11046.0,0.49,-6.63,9.69
11058.0,0.08,-7.16,10.05
11071.0,-0.34,-7.61,9.94
11084.0,-0.96,-8.07,10.2
11097.0,-1.27,-8.21,10.38
11110.0,-1.67,-8.08,10.1
11123.0,-2.05,-7.74,9.4
11136.0,-2.23,-7.13,8.46
11148.0,-2.01,-6.41,7.7
11161.0,-1.51,-5.59,7.48
11174.0,-0.9,-4.84,7.18
11187.0,-0.32,-4.09,6.61
11200.0,0.23,-3.53,6.32
11213.0,0.72,-3.29,6.85
11226.0,1.04,-3.37,7.75
11239.0,1.07,-3.39,8.0
11251.0,0.93,-3.34,7.98
11264.0,0.77,-3.32,7.99
11277.0,0.41,-3.36,8.64
11290.0,0.22,-3.07,8.67
11303.0,-0.06,-2.69,8.53
11316.0,-0.12,-2.42,8.61
11329.0,-0.04,-2.04,8.86
11341.0,0.39,-1.31,9.08
11354.0,0.57,-0.8,9.28
11367.0,0.55,-0.61,9.29
11380.0,0.51,-0.59,9.62
11393.0,0.56,-0.23,9.84
11406.0,0.71,-0.01,10.51
11419.0,1.02,0.45,11.21
11431.0,1.37,0.98,11.68
11444.0,1.43,1.36,12.31
11457.0,1.21,1.57,12.56
11470.0,0.88,2.03,12.21
11483.0,0.94,2.58,12.15
11496.0,1.19,2.96,12.63
11509.0,1.16,3.15,13.41
11521.0,1.17,3.43,13.42
11534.0,1.11,3.64,13.41
11547.0,0.91,3.65,13.5
11560.0,0.61,3.52,13.53
11573.0,0.37,3.42,13.71
11586.0,-0.05,3.18,13.86
11598.0,-0.41,3.05,13.39
11611.0,-0.71,2.89,12.77
11624.0,-0.79,2.82,11.97
11637.0,-0.85,2.9,11.17
11650.0,-0.76,3.07,10.45
11663.0,-0.55,3.3,9.86
11676.0,-0.21,3.59,9.13
11688.0,0.17,3.73,8.85
11701.0,0.44,3.12,9.63
11714.0,0.45,2.22,10.58
11727.0,0.34,1.27,11.03
11740.0,0.37,0.68,11.0
11753.0,0.41,0.37,10.32
11766.0,0.88,0.6,8.83
11778.0,1.75,1.19,7.6
11791.0,2.85,1.68,7.56
11804.0,3.87,1.42,9.34
11817.0,3.84,0.63,11.06
11830.0,2.86,-0.4,11.7
11843.0,1.17,-1.39,11.15
11855.0,-0.01,-2.0,10.33
11868.0,-0.04,-2.06,9.37
11881.0,0.52,-1.93,9.13
11894.0,0.94,-2.03,9.41
11907.0,0.94,-2.6,9.8
11920.0,0.79,-3.29,10.1
11933.0,0.77,-3.99,10.5
11945.0,1.07,-4.36,10.73
11958.0,0.49,-5.05,10.36
11971.0,0.36,-5.37,10.37
11984.0,0.25,-5.41,9.48
11997.0,0.17,-5.42,8.67
12010.0,0.31,-5.74,9.21
12023.0,0.62,-6.11,10.25
12036.0,1.19,-6.4,11.35
12048.0,1.47,-6.42,11.72
12061.0,1.09,-6.39,11.15
12074.0,0.57,-6.19,9.94
12087.0,0.15,-5.84,8.89
12100.0,0.17,-5.47,8.29
12113.0,0.47,-4.83,7.6
12126.0,0.95,-4.21,7.31
12138.0,1.17,-3.98,7.56
12151.0,1.16,-3.87,7.43
12164.0,0.93,-4.01,7.59
12177.0,0.65,-4.26,7.75
12190.0,0.33,-4.4,7.92
12203.0,0.5,-4.15,7.57
12216.0,0.6,-4.02,7.94
12228.0,0.49,-4.12,8.66
12241.0,0.43,-3.78,8.3
12254.0,0.5,-3.33,8.3
12267.0,0.72,-2.96,8.9
12280.0,0.93,-2.41,8.77
12293.0,0.97,-2.0,9.02
12306.0,0.85,-1.71,9.26
12318.0,0.6,-1.35,9.25
12331.0,0.63,-0.93,9.45
12344.0,0.85,-0.3,9.83
12357.0,1.21,0.43,9.92
12370.0,1.27,0.97,10.42
12383.0,1.19,1.56,10.29
12395.0,1.14,1.98,10.35
12408.0,1.17,2.35,10.87
12421.0,1.49,2.84,10.98
12434.0,2.02,3.4,11.13
12447.0,2.78,3.71,11.61
12460.0,3.43,4.06,11.96
12473.0,3.62,4.04,12.68
12485.0,3.15,3.75,13.48
12498.0,2.08,3.01,13.97
12511.0,0.79,2.41,14.15
12524.0,-0.17,2.22,13.83
12537.0,-1.11,2.18,13.18
12550.0,-1.79,2.09,12.74
12562.0,-2.26,2.09,12.21
12575.0,-2.46,2.2,11.87
12588.0,-2.41,2.39,11.49
12601.0,-2.28,2.57,10.95
12614.0,-2.05,2.4,11.22
12627.0,-1.92,1.9,11.99
12640.0,-2.0,1.46,12.14
12652.0,-2.07,1.3,11.34
12665.0,-1.64,1.33,10.51
12678.0,-0.87,1.46,10.09
12691.0,-0.05,1.66,9.65
12704.0,0.72,1.71,9.85
12717.0,1.47,1.54,10.34
12730.0,1.56,1.11,10.18
12742.0,1.36,0.6,10.03
12755.0,1.34,0.47,9.71
12768.0,1.41,0.39,9.36
12781.0,1.4,-0.27,9.7
12794.0,0.95,-1.22,10.27
12807.0,0.12,-2.27,10.4
12820.0,-0.34,-3.06,10.17
12832.0,-0.5,-3.54,9.37
12845.0,-0.16,-3.95,9.11
