timestamp,accX,accY,accZ
2.0,-0.99,-1.87,8.36
15.0,-1.52,-1.97,5.89
28.0,-2.46,-2.73,6.52
41.0,-1.89,-2.93,6.79
54.0,-0.58,-2.51,7.47
67.0,0.93,-2.14,8.56
79.0,1.27,-2.33,9.38
92.0,0.25,-3.18,10.0
105.0,-1.09,-4.25,10.17
118.0,-2.19,-4.89,9.86
131.0,-2.52,-5.02,9.41
144.0,-1.87,-4.58,9.18
157.0,-0.74,-3.85,9.17
170.0,0.18,-3.4,9.29
182.0,0.55,-3.21,9.46
195.0,0.16,-3.49,9.49
208.0,-0.83,-4.14,9.63
221.0,-1.9,-4.75,9.61
234.0,-2.62,-5.07,9.55
247.0,-2.93,-5.05,9.4
260.0,-2.48,-4.61,9.31
272.0,-1.7,-3.81,9.17
285.0,-0.94,-3.32,9.08
298.0,-0.35,-3.09,9.4
311.0,0.18,-3.16,9.81
324.0,0.43,-3.4,10.19
337.0,0.14,-3.68,10.33
350.0,-0.05,-4.05,10.38
363.0,-0.46,-4.3,10.46
375.0,-0.99,-4.32,10.08
388.0,-1.11,-4.2,9.7
401.0,-1.05,-4.17,10.02
414.0,-0.89,-4.22,10.26
427.0,-0.75,-3.99,10.16
440.0,-0.53,-3.56,9.71
453.0,-0.32,-3.03,9.23
466.0,-0.51,-2.58,9.26
478.0,-1.1,-2.67,9.07
491.0,-1.86,-2.56,8.37
504.0,-2.06,-2.14,7.64
517.0,-1.74,-1.65,7.62
530.0,-1.28,-1.37,8.5
543.0,-1.12,-1.49,9.42
556.0,-0.91,-1.55,9.95
569.0,-0.7,-1.45,10.33
581.0,-0.36,-1.14,10.4
594.0,0.02,-0.65,10.46
607.0,0.31,-0.11,10.36
620.0,0.46,0.23,10.35
633.0,0.41,0.68,10.05
646.0,0.16,1.07,9.67
659.0,-0.21,1.12,10.1
671.0,-0.53,1.02,10.38
684.0,-0.58,1.19,10.35
697.0,-0.51,1.56,10.3
710.0,-0.64,1.96,10.18
723.0,-0.71,2.26,10.03
736.0,-0.94,2.49,10.26
749.0,-1.0,2.46,10.64
761.0,-1.0,2.41,11.1
774.0,-0.87,2.52,11.34
787.0,-0.92,2.66,11.73
800.0,-1.09,2.58,11.98
813.0,-1.42,2.52,11.87
826.0,-1.71,2.68,11.48
839.0,-1.77,2.92,10.82
851.0,-1.64,3.15,10.32
864.0,-1.17,3.48,10.07
877.0,-0.9,3.55,10.05
890.0,-0.95,3.09,10.84
903.0,-1.34,2.5,11.3
916.0,-2.01,1.81,11.41
929.0,-2.44,1.36,11.22
941.0,-2.34,1.24,10.92
954.0,-1.74,1.41,10.55
967.0,-0.96,1.39,10.58
980.0,-0.4,1.33,10.97
993.0,-0.28,1.39,10.69
1006.0,-0.3,1.56,10.04
1019.0,-0.26,1.58,9.81
1031.0,-0.11,1.45,10.08
1044.0,0.08,1.0,10.59
1057.0,-0.03,0.09,11.17
1070.0,-0.16,-0.69,11.57
1083.0,-0.15,-1.04,11.39
1096.0,0.1,-0.86,10.86
1109.0,0.81,-0.45,9.92
1121.0,0.76,-0.09,9.5
1134.0,0.24,-0.48,9.83
1147.0,-0.71,-1.18,9.95
1160.0,-1.58,-2.21,10.07
1173.0,-2.39,-3.09,10.06
1186.0,-2.76,-3.74,9.77
1199.0,-2.58,-3.79,9.51
1211.0,-1.83,-3.39,8.92
1224.0,-0.99,-2.96,9.06
1237.0,-0.81,-2.66,8.94
1250.0,-1.01,-2.74,8.45
1263.0,-1.3,-3.05,8.28
1276.0,-1.68,-3.46,8.45
1289.0,-1.55,-4.05,8.8
1302.0,-1.26,-4.36,9.05
1314.0,-0.73,-4.51,9.61
1327.0,-0.51,-4.66,10.04
1340.0,-0.64,-4.74,10.01
1353.0,-0.77,-4.55,9.4
1366.0,-0.6,-4.17,8.64
1379.0,-0.25,-3.9,8.6
1392.0,-0.11,-4.05,8.92
1405.0,-0.31,-4.41,9.33
1417.0,-0.65,-4.64,9.36
1430.0,-0.81,-4.94,9.7
1443.0,-0.87,-5.06,9.99
1456.0,-0.97,-5.01,9.89
1469.0,-0.99,-4.73,9.44
1482.0,-0.84,-4.36,8.96
1495.0,-0.57,-3.95,8.74
1508.0,-0.31,-3.72,9.04
1520.0,-0.18,-3.71,9.59
1533.0,-0.3,-3.76,9.8
1546.0,-0.41,-3.63,9.48
1559.0,-0.59,-3.5,9.31
1572.0,-0.56,-3.59,9.41
1585.0,-0.5,-3.64,9.66
1598.0,-0.36,-3.64,9.52
1611.0,-0.17,-3.51,9.2
1623.0,-0.0,-3.54,9.24
1636.0,0.19,-3.77,9.78
1649.0,0.03,-4.03,10.15
1662.0,-0.45,-4.16,10.14
1675.0,-1.08,-4.23,9.91
1688.0,-1.46,-4.07,9.34
1701.0,-1.52,-3.72,9.02
1714.0,-1.45,-3.39,9.03
1726.0,-0.92,-3.34,9.13
1739.0,-0.52,-3.13,9.55
1752.0,-0.23,-2.89,9.97
1765.0,-0.25,-2.6,9.89
1778.0,-0.35,-2.19,9.41
1791.0,-0.5,-1.64,8.8
1804.0,-0.57,-1.01,8.13
1817.0,-0.57,-0.43,7.62
1829.0,-0.59,-0.03,7.52
1842.0,-0.56,0.03,7.96
1855.0,-0.12,-0.27,9.22
1868.0,-0.18,-0.55,10.43
1881.0,-0.58,-0.94,11.01
1894.0,-0.88,-1.12,11.19
1907.0,-0.83,-0.93,10.99
1920.0,-0.59,-0.4,10.5
1932.0,-0.26,0.21,10.19
1945.0,-0.23,0.71,10.01
1958.0,-0.36,1.09,9.78
1971.0,-0.61,1.24,9.69
1984.0,-0.58,1.46,9.89
1997.0,-0.57,1.51,10.3
2010.0,-0.52,1.4,10.73
2022.0,-0.37,1.5,11.11
2035.0,-0.45,1.78,11.11
2048.0,-0.67,1.83,11.29
2061.0,-0.88,1.78,11.58
2074.0,-0.95,1.78,12.0
2087.0,-1.05,1.84,12.13
2100.0,-0.99,1.98,11.98
2112.0,-0.79,2.23,11.75
2125.0,-0.55,2.45,11.61
2138.0,-0.19,2.56,11.9
2151.0,-0.17,2.51,12.03
2164.0,-0.39,2.17,11.77
2177.0,-0.6,1.99,11.13
2190.0,-0.53,1.98,10.45
2202.0,-0.2,2.2,9.98
2215.0,0.12,2.47,9.59
2228.0,0.27,2.63,9.34
2241.0,0.26,2.58,9.27
2254.0,0.25,2.29,9.59
2267.0,0.19,1.86,9.78
2280.0,-0.04,1.45,9.5
2292.0,-0.21,1.22,8.93
2305.0,-0.03,1.31,8.45
2318.0,0.33,1.68,8.3
2331.0,0.84,1.97,8.54
2344.0,1.37,2.02,8.97
2357.0,1.5,1.72,9.32
2369.0,1.42,1.28,9.5
2382.0,1.81,1.03,9.71
2395.0,2.07,0.63,10.58
2408.0,1.88,-0.09,11.63
2421.0,0.9,-1.35,12.68
2434.0,-0.05,-2.34,12.95
2447.0,-0.92,-2.48,11.87
2459.0,-1.24,-1.95,10.05
2472.0,-0.54,-1.17,8.96
2485.0,0.58,-0.58,9.4
2498.0,1.15,-0.58,10.14
2511.0,0.82,-0.99,10.37
2524.0,-0.26,-1.73,10.07
2537.0,-1.27,-2.42,9.61
2550.0,-1.85,-2.94,9.45
2562.0,-1.71,-3.12,9.22
2575.0,-1.07,-2.81,9.05
2588.0,-0.16,-2.36,9.0
2601.0,0.26,-2.14,8.92
2614.0,0.08,-2.42,8.87
2627.0,-0.53,-3.03,9.02
2640.0,-1.22,-3.68,9.38
2653.0,-1.71,-4.18,9.47
2665.0,-1.81,-4.38,9.63
2678.0,-1.37,-4.27,9.54
2691.0,-0.82,-3.91,9.27
2704.0,-0.11,-3.59,8.93
2717.0,0.4,-3.25,8.79
2730.0,0.58,-3.01,8.75
2743.0,0.09,-2.88,9.08
2755.0,0.41,-3.54,8.66
2768.0,0.0,-4.33,9.59
2781.0,-0.32,-4.87,10.44
2794.0,-0.54,-5.21,10.61
2807.0,-1.01,-5.48,10.88
2820.0,-1.33,-5.47,10.58
2833.0,-1.57,-5.27,10.07
2846.0,-1.45,-4.97,9.7
2858.0,-1.02,-4.62,9.57
2871.0,-0.66,-4.4,9.76
2884.0,-0.53,-4.23,9.77
2897.0,-0.54,-4.13,9.83
2910.0,-0.73,-4.07,9.98
2923.0,-0.92,-3.91,9.85
2936.0,-0.85,-3.65,9.5
2949.0,-0.5,-3.39,9.56
2961.0,-0.24,-3.28,9.77
2974.0,0.02,-3.26,9.95
2987.0,0.18,-3.31,10.15
3000.0,0.02,-3.66,10.64
3013.0,-0.38,-4.24,11.13
3026.0,-0.93,-4.38,10.72
3039.0,-1.34,-4.11,9.87
3051.0,-1.56,-3.68,9.21
3064.0,-1.46,-3.14,8.48
3077.0,-1.09,-2.6,8.07
3090.0,-0.49,-2.27,8.12
3103.0,0.0,-2.07,8.42
3116.0,0.08,-1.78,8.25
3129.0,-0.23,-1.77,8.42
3142.0,-0.89,-2.02,8.57
3154.0,-1.28,-2.07,8.31
3167.0,-1.18,-1.75,8.3
3180.0,-0.96,-1.39,8.61
3193.0,-0.74,-0.94,8.72
3206.0,-0.58,-0.4,8.6
3219.0,-0.55,0.07,8.58
3232.0,-0.92,0.31,8.7
3245.0,-1.63,0.04,9.08
3257.0,-2.12,-0.37,9.71
3270.0,-2.17,-0.06,9.45
3283.0,-1.69,0.55,9.17
3296.0,-0.9,1.16,9.42
3309.0,-0.18,1.5,10.34
3322.0,0.26,1.58,11.44
3335.0,0.03,1.45,12.27
3347.0,-0.2,1.25,12.64
3360.0,-0.28,1.3,12.71
3373.0,-0.34,1.55,12.48
3386.0,-0.34,1.82,12.28
3399.0,-0.47,1.93,12.02
3412.0,-0.59,2.0,12.15
3425.0,-0.87,2.01,12.09
3437.0,-0.97,2.01,11.6
3450.0,-0.79,2.07,11.28
3463.0,-0.55,2.29,11.08
3476.0,-0.19,2.53,10.87
3489.0,0.14,2.66,10.75
3502.0,0.17,2.81,10.42
3515.0,0.06,2.8,10.12
3527.0,-0.08,2.77,9.86
3540.0,-0.23,2.67,9.88
3553.0,-0.74,2.44,9.89
3566.0,-1.48,1.88,9.8
3579.0,-2.05,1.14,10.19
3592.0,-2.35,0.46,10.54
3605.0,-2.29,0.28,10.22
3617.0,-1.74,0.47,9.75
3630.0,-0.9,0.77,9.79
3643.0,-0.46,0.96,10.15
3656.0,-0.34,0.84,10.42
3669.0,-0.42,0.35,10.57
3682.0,-0.55,0.15,10.17
3695.0,-0.4,0.31,9.43
3707.0,0.17,0.41,9.26
3720.0,0.95,0.52,9.43
3733.0,1.64,0.38,10.14
3746.0,1.95,-0.02,10.9
3759.0,1.74,-0.56,11.07
3772.0,1.15,-0.78,10.26
3784.0,0.73,-0.51,9.0
3797.0,0.89,-0.08,8.55
3810.0,1.12,-0.03,9.04
3823.0,1.23,-0.11,9.23
3836.0,0.6,-0.49,9.5
3849.0,-0.23,-1.33,9.81
3862.0,-0.9,-2.09,9.89
3875.0,-1.15,-2.48,9.93
3887.0,-0.92,-2.49,10.06
3900.0,-0.82,-2.31,9.95
3913.0,-0.82,-2.41,9.85
3926.0,-1.0,-2.59,9.59
3939.0,-1.14,-2.74,9.49
3952.0,-1.13,-2.79,9.39
3965.0,-1.17,-3.06,9.36
3978.0,-0.74,-3.27,9.61
3990.0,-0.39,-3.31,9.8
4003.0,0.01,-3.21,9.66
4016.0,0.15,-3.17,9.42
4029.0,0.09,-3.27,9.33
4042.0,-0.07,-3.71,9.63
4055.0,-0.41,-4.27,10.15
4068.0,-0.63,-4.7,10.59
4080.0,-0.84,-5.01,10.69
4093.0,-0.84,-4.98,10.36
4106.0,-0.76,-4.77,10.18
4119.0,-0.67,-4.69,10.2
4132.0,-0.78,-4.88,10.44
4145.0,-1.02,-5.01,10.53
4158.0,-1.23,-4.85,10.18
4171.0,-1.31,-4.55,9.7
4183.0,-1.26,-4.3,9.7
4196.0,-1.26,-4.28,9.97
4209.0,-1.25,-4.25,9.95
4222.0,-1.05,-4.04,9.59
4235.0,-0.68,-3.48,8.99
4248.0,-0.0,-3.0,8.91
4261.0,0.85,-2.57,9.03
4274.0,1.33,-2.26,9.2
4286.0,1.54,-2.1,9.19
4299.0,1.67,-1.98,9.05
4312.0,1.73,-1.88,8.94
4325.0,1.46,-1.88,9.0
4338.0,0.86,-2.08,9.03
4351.0,0.24,-2.03,8.69
4364.0,0.09,-2.0,8.54
4376.0,-0.14,-1.98,8.79
4389.0,-0.15,-1.92,8.83
4402.0,-0.09,-1.82,8.92
4415.0,0.03,-1.67,8.98
4428.0,0.23,-1.32,8.66
4441.0,0.76,-0.87,8.57
4454.0,0.96,-0.6,8.74
4466.0,1.02,-0.47,9.14
4479.0,0.67,-0.48,9.21
4492.0,0.21,-0.38,8.92
4505.0,-0.29,-0.23,8.56
4518.0,-0.74,-0.23,8.29
4531.0,-1.0,-0.23,8.5
4544.0,-0.84,-0.29,9.13
4557.0,-0.49,-0.24,9.89
4569.0,-0.26,-0.04,10.18
4582.0,-0.16,0.21,10.21
4595.0,-0.09,0.45,10.29
4608.0,0.07,0.63,10.54
4621.0,0.35,0.67,11.35
4634.0,0.59,0.64,12.3
4647.0,0.46,0.69,12.54
4659.0,0.14,0.77,12.41
4672.0,-0.31,0.86,12.04
4685.0,-0.55,1.02,11.85
4698.0,-0.36,1.14,12.17
4711.0,0.03,1.27,12.62
4724.0,0.33,1.56,12.68
4736.0,0.37,1.7,12.75
4749.0,0.1,1.63,12.55
4762.0,-0.1,1.47,12.5
4775.0,-0.14,1.37,12.45
4788.0,-0.06,1.39,12.13
4801.0,-0.1,1.53,11.46
4814.0,-0.3,1.71,10.62
4826.0,-0.26,1.77,10.3
4839.0,0.06,1.65,10.8
4852.0,0.29,1.38,11.18
4865.0,0.44,1.04,11.22
4878.0,0.42,0.92,10.67
4891.0,0.4,0.98,10.02
4904.0,0.33,0.83,9.85
4916.0,0.27,0.78,9.83
4929.0,0.38,0.71,9.84
4942.0,0.58,0.52,10.06
4955.0,0.81,0.42,10.12
4968.0,0.79,0.28,10.08
4981.0,0.59,-0.03,9.89
4993.0,0.3,-0.15,9.44
5006.0,0.29,-0.14,9.39
5019.0,0.27,-0.28,9.73
5032.0,0.12,-0.61,10.04
5045.0,-0.11,-1.07,10.33
5058.0,-0.41,-1.59,10.59
5071.0,-0.69,-2.07,10.61
5083.0,-0.88,-2.2,10.27
5096.0,-0.54,-2.11,9.94
5109.0,-0.04,-2.05,9.78
5122.0,0.54,-1.81,9.59
5135.0,0.71,-1.68,9.39
5148.0,0.54,-1.79,9.14
5161.0,0.44,-1.8,8.59
5174.0,0.64,-1.56,8.34
5186.0,1.0,-1.62,8.49
5199.0,1.02,-2.1,9.35
5212.0,0.56,-3.2,10.5
5225.0,-0.19,-4.03,11.12
5238.0,-0.95,-4.46,10.9
5251.0,-0.99,-4.24,9.99
5264.0,-0.46,-3.39,8.95
5276.0,0.56,-2.19,8.2
5289.0,1.33,-1.53,8.55
5302.0,2.15,-1.97,8.75
5315.0,1.28,-2.79,9.86
5328.0,-0.08,-3.72,10.43
5341.0,-1.08,-4.61,10.75
5354.0,-1.79,-5.2,10.87
5367.0,-2.13,-5.46,10.44
5379.0,-1.8,-5.12,9.98
5392.0,-1.21,-4.48,9.62
5405.0,-0.67,-3.95,9.36
5418.0,-0.41,-3.68,9.12
5431.0,-0.41,-3.47,8.87
5444.0,-0.41,-3.44,8.85
5457.0,-0.31,-3.51,9.02
5470.0,-0.11,-3.37,8.88
5482.0,0.1,-3.14,8.9
5495.0,0.22,-3.02,8.96
5508.0,0.21,-2.95,8.87
5521.0,-0.15,-3.04,9.02
5534.0,-0.21,-3.32,9.33
5547.0,-0.2,-3.67,9.95
5560.0,-0.17,-3.91,10.34
5572.0,-0.09,-4.03,10.34
5585.0,0.01,-3.85,10.07
5598.0,0.24,-3.57,9.96
5611.0,0.2,-3.32,9.74
5624.0,-0.01,-3.16,9.6
5637.0,-0.24,-3.03,9.56
5650.0,-0.37,-2.7,8.99
5663.0,-0.19,-2.14,8.46
5675.0,0.31,-1.91,8.77
5688.0,0.85,-1.89,9.92
5701.0,0.99,-1.88,10.78
5714.0,0.85,-1.66,10.85
5727.0,0.36,-1.25,9.99
5740.0,0.1,-0.64,8.74
5753.0,0.14,-0.19,8.43
5765.0,0.29,-0.26,9.12
5778.0,0.38,-0.7,10.26
5791.0,0.27,-1.2,11.33
5804.0,0.19,-1.23,11.75
5817.0,0.48,-0.64,11.46
5830.0,1.03,0.4,10.99
5843.0,1.51,1.32,11.06
5855.0,1.64,1.82,11.72
5868.0,1.27,2.11,11.78
5881.0,0.57,2.44,11.45
5894.0,-0.09,2.85,10.81
5907.0,-0.81,3.26,10.09
5920.0,-1.48,3.43,9.56
5933.0,-1.88,3.37,9.68
5945.0,-2.05,3.13,10.1
5958.0,-1.94,2.86,10.71
5971.0,-1.55,2.53,11.26
5984.0,-1.13,2.39,11.56
5997.0,-0.81,2.25,11.72
6010.0,-0.49,2.1,11.72
6023.0,-0.38,1.9,11.59
6035.0,-0.38,1.85,11.04
6048.0,-0.33,1.92,10.4
6061.0,-0.06,2.24,9.81
6074.0,0.23,2.71,9.47
6087.0,0.46,2.96,9.42
6100.0,0.62,2.71,9.7
6112.0,0.47,2.28,9.78
6125.0,0.33,1.66,9.89
6138.0,0.19,1.1,9.81
6151.0,0.2,1.05,9.09
6164.0,0.74,1.29,8.78
6177.0,1.74,1.59,9.21
6190.0,2.41,1.48,10.29
6202.0,2.29,0.97,10.78
6215.0,1.81,0.46,10.79
6228.0,1.39,0.16,10.31
6241.0,1.11,0.0,9.79
6254.0,1.08,-0.14,9.73
6267.0,1.09,-0.07,9.65
6279.0,1.5,0.02,9.45
6292.0,2.1,-0.12,9.5
6305.0,1.65,-0.59,10.27
6318.0,0.94,-1.55,11.07
6331.0,0.07,-2.58,11.0
6344.0,-0.69,-3.17,10.34
6357.0,-0.68,-2.83,9.53
6369.0,-0.26,-2.44,9.49
6382.0,0.29,-2.5,9.78
6395.0,0.33,-2.87,10.32
6408.0,-0.01,-3.68,11.0
6421.0,-0.7,-4.35,11.35
6434.0,-1.62,-4.84,11.15
6447.0,-2.11,-4.91,10.38
6460.0,-1.96,-4.37,9.47
6472.0,-1.23,-3.76,8.69
6485.0,-0.56,-3.18,8.5
6498.0,0.08,-2.98,8.58
6511.0,0.46,-2.69,8.31
6524.0,0.45,-2.86,8.34
6537.0,0.34,-3.27,8.56
6550.0,0.14,-3.65,8.88
6562.0,-0.0,-3.92,9.1
6575.0,-0.21,-4.13,9.25
6588.0,-0.4,-4.32,9.13
6601.0,-0.42,-4.36,9.05
6614.0,-0.28,-4.4,9.14
6627.0,-0.17,-4.34,9.27
6640.0,-0.13,-4.39,9.52
6653.0,-0.12,-4.46,9.54
6665.0,-0.02,-4.04,9.11
6678.0,0.25,-3.64,9.11
6691.0,0.61,-3.26,9.06
6704.0,0.9,-2.88,8.94
6717.0,1.12,-2.5,8.75
6730.0,1.2,-2.17,8.54
6743.0,0.91,-2.2,8.55
6756.0,0.34,-2.48,8.45
6768.0,-0.2,-2.95,9.1
6781.0,-0.42,-3.42,9.7
6794.0,-0.53,-3.66,10.07
6807.0,-0.21,-3.82,10.48
6820.0,0.2,-3.89,10.89
6833.0,0.64,-3.85,11.08
6846.0,0.92,-3.67,10.83
6858.0,0.97,-3.37,10.43
6871.0,0.54,-3.24,9.89
6884.0,-0.13,-3.26,9.24
6897.0,-0.6,-3.2,8.83
6910.0,-0.57,-2.93,8.63
6923.0,-0.3,-2.54,8.49
6936.0,-0.02,-2.26,8.63
6949.0,0.28,-2.2,9.02
6961.0,0.42,-2.05,9.21
6974.0,0.62,-1.94,9.49
6987.0,0.46,-2.15,10.02
7000.0,0.11,-2.38,10.07
7013.0,-0.25,-2.32,9.69
7026.0,-0.36,-1.86,9.36
7039.0,-0.24,-1.11,9.18
7051.0,0.01,-0.62,9.5
7064.0,0.19,-0.28,9.79
7077.0,0.26,0.12,9.78
7090.0,0.09,0.34,9.92
7103.0,-0.35,0.05,10.47
7116.0,-0.71,-0.54,11.54
7129.0,-1.11,-0.84,12.38
7141.0,-1.35,-0.87,12.63
7154.0,-1.17,-0.57,12.68
7167.0,-0.95,0.05,12.56
7180.0,-0.75,0.61,12.21
7193.0,-0.66,0.97,12.29
7206.0,-0.84,1.21,12.3
7219.0,-1.1,1.29,12.12
7232.0,-1.13,1.35,12.01
7244.0,-1.1,1.27,12.04
7257.0,-0.75,1.09,12.44
7270.0,-0.41,1.07,12.6
7283.0,-0.14,1.14,12.23
7296.0,-0.06,1.31,11.42
7309.0,-0.04,1.51,10.66
7322.0,-0.28,1.76,9.88
7334.0,-0.44,1.88,9.32
7347.0,-0.4,1.84,9.47
7360.0,-0.04,1.18,10.88
7373.0,-0.03,0.32,12.08
7386.0,-0.45,-0.25,12.01
7399.0,-1.0,-0.25,11.0
7412.0,-0.76,-0.21,9.26
7424.0,-0.21,0.12,8.48
7437.0,0.71,1.28,7.87
7450.0,1.51,2.65,7.0
7463.0,2.29,2.77,7.3
7476.0,1.7,1.53,8.73
7489.0,0.62,-0.09,10.09
7502.0,-0.47,-1.25,10.27
7514.0,-1.13,-1.87,9.78
7527.0,-1.0,-1.81,9.05
7540.0,-0.06,-1.2,8.79
7553.0,0.6,-0.42,8.79
7566.0,0.92,-0.2,8.91
7579.0,0.59,-0.47,9.41
7592.0,0.13,-1.08,9.49
7604.0,-0.03,-1.59,9.8
7617.0,-0.59,-2.32,10.5
7630.0,-1.19,-3.01,10.84
7643.0,-1.8,-3.4,10.47
7656.0,-1.65,-3.14,9.38
7669.0,-0.52,-2.21,8.55
7682.0,0.62,-1.7,9.05
7695.0,0.85,-2.09,10.18
7707.0,-0.08,-3.11,10.82
7720.0,-1.32,-4.34,11.12
7733.0,-2.26,-4.95,10.98
7746.0,-2.91,-5.04,10.14
7759.0,-2.5,-4.6,9.41
7772.0,-1.7,-3.9,9.09
7785.0,-0.95,-3.58,8.99
7798.0,-0.38,-3.37,8.7
7810.0,0.21,-2.9,8.04
7823.0,0.41,-2.58,7.62
7836.0,0.37,-2.65,7.38
7849.0,0.06,-3.07,7.5
7862.0,-0.65,-3.8,8.01
7875.0,-1.11,-4.78,8.84
7888.0,-1.41,-5.38,9.48
7900.0,-1.62,-5.79,9.92
7913.0,-1.72,-5.96,10.03
7926.0,-1.85,-5.79,9.59
7939.0,-1.93,-5.4,9.02
7952.0,-2.07,-5.07,8.77
7965.0,-2.27,-4.84,8.52
7978.0,-2.36,-4.74,8.55
7991.0,-2.24,-4.81,9.1
8003.0,-2.05,-4.89,9.48
8016.0,-1.56,-4.65,9.43
8029.0,-0.94,-4.33,9.48
8042.0,-0.65,-4.37,10.36
8055.0,-0.92,-4.64,10.73
8068.0,-1.51,-4.85,10.44
8081.0,-1.95,-4.57,9.45
8094.0,-2.1,-4.3,8.58
8106.0,-1.65,-4.3,8.86
8119.0,-1.0,-4.26,9.43
8132.0,-0.74,-4.08,9.61
8145.0,-0.49,-4.07,9.55
8158.0,-0.54,-4.13,9.62
8171.0,-1.12,-4.23,9.71
8184.0,-1.8,-4.26,9.31
8197.0,-2.02,-3.97,8.79
8209.0,-1.77,-3.29,8.41
8222.0,-1.14,-2.81,8.75
8235.0,-0.59,-2.43,9.44
8248.0,0.09,-2.17,9.92
8261.0,0.16,-1.99,10.15
8274.0,0.03,-1.78,9.9
8287.0,0.02,-1.43,9.49
8299.0,0.0,-1.09,9.12
8312.0,-0.02,-0.74,8.81
8325.0,-0.32,-0.4,8.53
8338.0,-0.56,-0.17,8.29
8351.0,-0.74,-0.0,8.22
8364.0,-0.98,0.18,7.98
8377.0,-1.04,0.22,8.21
8390.0,-1.02,0.05,8.89
8402.0,-1.22,-0.18,9.52
8415.0,-1.42,-0.15,9.51
8428.0,-1.32,0.07,9.53
8441.0,-0.66,0.28,10.26
8454.0,0.16,0.46,11.31
8467.0,0.67,0.29,12.78
8480.0,0.92,-0.0,13.88
8492.0,0.63,-0.23,14.31
8505.0,-0.08,-0.14,13.82
8518.0,-0.58,0.05,13.01
8531.0,-0.82,0.11,12.78
8544.0,-0.81,0.23,12.63
8557.0,-0.75,0.39,12.13
8570.0,-0.85,0.67,11.33
8582.0,-1.15,0.95,10.51
8595.0,-1.27,1.22,9.91
8608.0,-1.23,1.6,9.57
8621.0,-1.21,1.78,9.67
8634.0,-1.54,1.39,10.36
8647.0,-2.2,0.66,11.14
8660.0,-2.88,-0.03,11.51
8672.0,-3.29,-0.51,11.66
8685.0,-3.34,-0.69,11.68
8698.0,-3.07,-0.62,11.72
8711.0,-2.66,-0.27,11.36
8724.0,-2.21,-0.04,11.2
8737.0,-1.72,0.01,10.97
8750.0,-1.38,0.37,10.34
8763.0,-1.0,0.79,9.69
8775.0,-0.44,1.09,8.9
8788.0,0.08,1.21,8.7
8801.0,0.77,1.24,9.01
8814.0,1.22,1.16,9.37
8827.0,1.51,1.06,9.88
8840.0,1.21,0.52,10.79
8853.0,0.38,-0.4,11.44
8865.0,-0.81,-1.29,11.39
8878.0,-1.74,-1.77,10.46
8891.0,-1.87,-1.72,9.35
8904.0,-1.11,-0.89,8.36
8917.0,-0.25,0.05,8.07
8930.0,0.05,0.23,8.46
8943.0,-0.01,-0.05,9.12
8955.0,-0.35,-0.54,9.55
8968.0,-0.78,-0.97,9.5
8981.0,-1.08,-1.11,9.08
8994.0,-1.08,-1.15,9.03
9007.0,-0.95,-1.19,9.14
9020.0,-0.46,-1.31,9.27
9033.0,0.05,-1.46,9.51
9046.0,0.52,-1.65,9.91
9058.0,0.44,-2.02,10.37
9071.0,0.0,-2.44,10.57
9084.0,-0.78,-2.94,10.23
9097.0,-1.18,-3.29,9.8
9110.0,-0.98,-3.17,9.43
9123.0,-0.73,-2.97,9.04
9136.0,-0.37,-2.68,8.44
9148.0,0.21,-2.18,7.68
9161.0,0.75,-1.93,8.1
9174.0,0.53,-2.45,9.2
9187.0,-0.08,-3.41,10.12
9200.0,-0.88,-4.22,10.17
9213.0,-1.01,-4.79,10.33
9226.0,-0.68,-4.79,10.39
9239.0,-0.04,-4.41,10.41
9251.0,0.5,-4.15,10.86
9264.0,0.72,-4.11,11.27
9277.0,0.44,-4.05,11.2
9290.0,-0.18,-3.86,10.62
9303.0,-0.63,-3.68,10.08
9316.0,-0.97,-3.55,9.76
9329.0,-1.2,-3.39,9.61
9342.0,-1.38,-3.2,9.27
9354.0,-1.34,-3.01,9.04
9367.0,-1.1,-2.78,9.23
9380.0,-1.02,-2.6,9.15
9393.0,-0.88,-2.51,9.23
9406.0,-0.79,-2.57,9.23
9419.0,-0.54,-2.73,9.36
9432.0,-0.24,-2.86,9.78
9445.0,0.12,-2.91,10.17
9457.0,0.27,-2.82,10.38
9470.0,-0.04,-2.55,10.1
9483.0,-0.76,-2.58,9.51
9496.0,-1.28,-2.49,8.77
9509.0,-1.36,-2.07,8.15
9522.0,-1.32,-1.54,7.93
9535.0,-1.04,-1.23,7.89
9547.0,-0.64,-0.91,8.22
9560.0,-0.24,-0.71,8.66
9573.0,0.33,-0.41,8.99
9586.0,0.91,-0.11,9.6
9599.0,1.03,0.12,9.92
9612.0,0.89,0.2,10.04
9625.0,0.66,0.37,9.73
9637.0,0.32,0.6,9.7
9650.0,0.04,0.57,9.67
9663.0,-0.29,0.54,9.73
9676.0,-0.27,0.43,10.01
9689.0,0.28,0.57,10.14
9702.0,1.03,1.03,10.32
9715.0,1.71,1.46,10.55
9727.0,2.31,1.48,10.93
9740.0,2.27,1.42,11.51
9753.0,1.67,1.28,11.31
9766.0,0.82,1.03,10.98
9779.0,-0.03,0.87,10.81
9792.0,-0.78,0.85,10.7
9804.0,-1.27,0.83,10.69
9817.0,-1.51,0.72,10.89
9830.0,-1.28,0.65,11.38
9843.0,-0.92,0.58,11.91
9856.0,-0.65,0.79,12.17
9869.0,-0.42,1.01,12.03
9882.0,-0.44,1.2,11.95
9895.0,-0.68,1.3,11.6
9907.0,-1.12,1.41,10.92
9920.0,-1.4,1.59,10.12
9933.0,-1.46,1.63,9.7
9946.0,-1.49,1.67,9.62
9959.0,-1.52,1.6,9.67
9972.0,-1.36,1.29,10.01
9985.0,-1.33,0.89,10.73
9997.0,-1.49,0.38,11.45
10010.0,-1.85,-0.06,11.72
10023.0,-2.0,-0.05,11.38
10036.0,-1.81,0.24,10.79
10049.0,-1.44,1.01,10.07
10062.0,-0.4,1.72,9.26
10075.0,0.49,2.39,9.18
10087.0,0.78,2.19,10.04
10100.0,0.46,1.19,11.08
10113.0,-0.34,0.27,11.51
10126.0,-1.0,-0.23,11.3
10139.0,-0.99,-0.16,10.23
10152.0,-0.44,0.12,9.45
10165.0,0.73,0.46,8.96
10177.0,1.98,0.97,9.35
10190.0,2.45,1.23,10.07
10203.0,1.9,0.94,10.3
10216.0,0.53,0.01,10.06
10229.0,-0.78,-0.91,9.9
10242.0,-1.7,-1.51,9.49
10254.0,-1.63,-1.4,8.43
10267.0,-0.46,-0.49,6.81
10280.0,1.32,0.58,6.42
10293.0,2.2,0.62,7.24
10306.0,1.92,-1.01,9.92
10319.0,0.51,-2.83,11.87
10332.0,-1.4,-4.57,12.89
10345.0,-3.0,-5.71,12.58
10357.0,-3.94,-5.96,11.28
10370.0,-3.44,-5.11,9.49
10383.0,-1.48,-3.87,8.57
10396.0,0.48,-2.97,8.94
10409.0,1.24,-2.55,10.19
10422.0,0.64,-2.45,9.72
10435.0,-0.59,-2.86,8.64
10447.0,-1.61,-3.33,8.17
10460.0,-1.95,-3.6,8.08
10473.0,-1.69,-3.81,8.58
10486.0,-1.47,-3.84,8.96
10499.0,-1.47,-3.87,9.17
10512.0,-1.57,-3.89,9.14
10525.0,-1.62,-3.81,9.02
10538.0,-1.68,-3.88,9.1
10550.0,-1.7,-4.14,9.63
10563.0,-1.68,-4.25,9.62
10576.0,-1.61,-4.19,9.58
10589.0,-1.58,-4.17,9.57
10602.0,-1.51,-4.2,9.6
10615.0,-1.48,-4.09,9.39
10628.0,-1.66,-3.91,9.17
10641.0,-1.94,-3.9,9.13
10653.0,-2.23,-3.98,9.11
10666.0,-2.37,-4.07,9.18
10679.0,-2.42,-4.16,9.19
10692.0,-2.33,-4.32,9.69
10705.0,-2.26,-4.35,9.99
10718.0,-2.12,-4.33,10.12
10731.0,-2.11,-4.33,10.22
10744.0,-2.2,-4.26,10.17
10756.0,-2.18,-3.99,9.76
10769.0,-1.91,-3.77,9.56
10782.0,-1.41,-3.38,9.27
10795.0,-1.07,-3.03,9.0
10808.0,-0.9,-2.83,8.62
10821.0,-0.96,-2.69,8.27
10834.0,-1.08,-2.69,7.99
10847.0,-1.14,-2.66,7.62
10859.0,-0.89,-2.6,7.36
10872.0,-0.13,-2.64,8.0
10885.0,0.59,-2.78,9.25
10898.0,1.25,-2.72,9.85
10911.0,1.67,-2.38,9.87
10924.0,1.73,-2.07,9.89
10937.0,1.71,-1.86,10.2
10950.0,1.5,-1.74,10.47
10962.0,1.08,-1.39,10.07
10975.0,0.47,-0.95,9.37
10988.0,-0.06,-0.64,8.96
11001.0,-0.39,-0.43,8.77
11014.0,-0.81,-0.41,9.18
11027.0,-1.58,-0.42,9.58
11040.0,-2.06,-0.29,9.1
11052.0,-2.29,0.16,8.75
11065.0,-2.13,0.8,8.55
11078.0,-1.92,1.4,8.87
11091.0,-1.3,1.9,9.29
11104.0,-0.74,2.29,10.13
11117.0,-0.43,2.66,10.96
11130.0,-0.74,2.85,11.18
11142.0,-1.47,2.83,10.91
11155.0,-2.13,2.73,10.95
11168.0,-2.39,2.48,11.75
11181.0,-2.56,2.17,12.61
11194.0,-2.7,1.87,13.11
11207.0,-3.08,1.5,13.61
11220.0,-3.5,1.1,13.55
11232.0,-3.73,0.92,13.26
11245.0,-3.61,1.0,12.77
11258.0,-3.06,1.35,12.12
11271.0,-2.3,1.68,11.99
11284.0,-1.83,1.92,11.83
11297.0,-1.75,1.73,11.96
11310.0,-1.92,1.32,12.11
11322.0,-2.27,0.85,12.31
11335.0,-2.39,0.29,12.53
11348.0,-2.28,-0.01,12.19
11361.0,-1.82,0.11,11.07
11374.0,-1.21,0.67,9.91
11387.0,-0.43,1.61,8.58
11400.0,0.0,2.55,7.9
11412.0,0.27,2.82,7.71
11425.0,0.12,2.2,8.71
11438.0,-0.08,0.97,9.94
11451.0,-0.44,-0.02,10.38
11464.0,-0.76,-0.16,9.8
11477.0,-0.53,0.41,8.76
11490.0,-0.1,1.26,7.69
11503.0,0.46,1.36,7.74
11515.0,0.99,0.58,8.77
11528.0,1.23,-0.68,10.57
11541.0,0.38,-1.66,11.56
11554.0,-1.11,-2.34,11.33
11567.0,-2.38,-2.55,9.69
11580.0,-2.63,-2.01,7.9
11593.0,-2.01,-1.34,7.22
11605.0,-1.15,-1.54,7.9
11618.0,-0.5,-2.65,10.07
11631.0,-0.5,-3.57,11.45
11644.0,-1.7,-3.62,10.53
11657.0,-2.26,-3.36,8.64
11670.0,-2.37,-3.0,7.45
11683.0,-1.79,-3.03,7.62
11696.0,-0.75,-3.27,8.81
11708.0,-0.15,-3.54,9.98
11721.0,-0.06,-4.38,10.81
11734.0,-1.01,-5.16,11.3
11747.0,-2.21,-5.46,10.86
11760.0,-2.7,-5.26,9.73
11773.0,-2.19,-4.57,8.65
11786.0,-1.31,-3.88,8.36
11799.0,-0.52,-3.54,8.57
11811.0,0.22,-3.44,8.98
11824.0,0.57,-3.51,9.28
11837.0,0.33,-3.79,9.49
11850.0,-0.01,-4.24,9.81
11863.0,-0.65,-4.79,10.27
11876.0,-1.34,-5.3,10.48
11889.0,-1.71,-5.1,9.72
11901.0,-1.65,-4.54,9.14
11914.0,-1.33,-4.07,8.98
11927.0,-1.18,-3.63,8.63
11940.0,-1.14,-3.31,8.59
11953.0,-1.16,-3.19,8.53
11966.0,-1.14,-3.25,8.42
11979.0,-0.79,-3.32,8.4
11992.0,-0.42,-3.37,8.68
12004.0,-0.12,-3.53,8.88
12017.0,0.03,-3.88,9.36
12030.0,0.11,-4.12,9.77
12043.0,0.21,-4.04,9.86
12056.0,0.27,-3.8,9.88
12069.0,0.37,-3.54,9.57
12082.0,0.47,-3.36,9.46
12094.0,0.55,-2.98,9.33
12107.0,0.6,-2.54,8.91
12120.0,0.67,-2.16,8.61
12133.0,0.67,-2.11,8.77
12146.0,0.68,-2.19,9.03
12159.0,0.76,-2.18,9.43
12172.0,0.82,-2.14,9.98
12184.0,0.75,-2.04,10.39
12197.0,0.45,-1.9,10.43
12210.0,0.1,-1.66,10.14
12223.0,-0.34,-1.44,9.75
12236.0,-0.5,-1.3,9.65
12249.0,-0.22,-1.2,10.21
12262.0,0.4,-0.7,10.26
12275.0,1.07,-0.06,10.59
12287.0,1.37,0.57,10.69
12300.0,1.37,0.86,10.62
12313.0,1.31,1.22,10.27
12326.0,1.13,1.66,9.79
12339.0,1.13,2.07,9.67
12352.0,1.3,2.4,10.07
12364.0,1.53,2.78,10.71
12377.0,1.69,3.14,11.35
12390.0,1.31,3.25,11.54
12403.0,0.53,3.3,11.02
12416.0,-0.04,2.9,11.19
12429.0,-0.11,2.22,12.28
12442.0,0.14,1.95,12.83
12454.0,0.47,1.91,13.13
12467.0,0.97,2.04,13.01
12480.0,1.49,2.38,12.67
12493.0,1.83,2.55,12.53
12506.0,1.78,2.52,12.62
12519.0,1.42,2.32,12.5
12531.0,0.89,2.04,12.11
12544.0,0.34,1.68,11.78
12557.0,0.14,1.41,11.42
12570.0,0.17,1.16,11.43
12583.0,0.24,1.0,11.13
12596.0,0.3,1.06,10.36
12609.0,0.73,1.33,9.66
12621.0,1.03,1.46,9.7
12634.0,1.28,0.93,10.15
12647.0,0.92,-0.01,11.01
12660.0,0.44,-0.24,10.46
12673.0,0.21,-0.09,9.45
12686.0,0.51,-0.06,9.54
12698.0,1.2,-0.05,9.64
12711.0,1.4,-0.08,10.12
12724.0,1.39,-0.78,10.75
12737.0,1.02,-1.56,11.07
12750.0,0.58,-1.44,9.94
12763.0,0.58,-0.88,8.62
12776.0,0.85,-0.32,8.51
12788.0,0.87,-0.79,9.89
12801.0,0.67,-1.89,11.13
12814.0,0.21,-2.81,11.86
12827.0,-0.17,-3.12,11.38
12840.0,-0.46,-2.91,9.97
12853.0,0.19,-2.29,8.77
