timestamp,accX,accY,accZ
2.0,-0.36,-2.28,11.94
15.0,-0.53,-2.14,9.68
28.0,-0.86,-2.86,11.58
41.0,-0.71,-3.04,11.34
54.0,-0.3,-2.63,10.1
67.0,0.17,-2.08,8.72
79.0,0.65,-1.73,7.84
92.0,0.78,-1.4,7.1
105.0,0.48,-1.1,6.25
118.0,0.02,-0.83,5.67
131.0,-0.17,-0.86,5.38
144.0,-0.06,-0.81,5.15
157.0,0.28,-0.84,5.15
169.0,0.67,-0.95,5.39
182.0,0.95,-0.97,5.53
195.0,0.76,-0.76,5.23
208.0,0.54,-0.47,4.85
221.0,0.78,-0.29,4.59
234.0,1.03,-0.0,4.29
247.0,1.17,0.15,4.11
259.0,1.24,0.31,4.06
272.0,1.22,0.45,3.7
285.0,1.26,0.53,3.56
298.0,1.27,0.43,4.03
311.0,1.16,0.3,4.84
324.0,0.97,0.16,5.31
337.0,0.64,0.14,5.51
349.0,0.37,0.04,5.66
362.0,0.39,-0.25,6.09
375.0,0.49,-0.6,6.37
388.0,0.65,-0.79,6.23
401.0,0.9,-1.08,5.86
414.0,1.43,-1.36,6.16
426.0,1.77,-1.73,6.86
439.0,1.76,-1.76,7.3
452.0,1.81,-1.44,7.15
465.0,1.66,-1.0,7.33
478.0,1.06,-0.59,7.88
491.0,0.18,-0.06,8.37
504.0,-0.41,0.09,9.34
516.0,-0.52,-0.17,10.6
529.0,-0.48,-0.37,11.48
542.0,-0.54,-0.71,12.2
555.0,-0.52,-0.79,12.33
568.0,-0.76,-0.68,12.11
581.0,-0.68,-1.06,12.81
594.0,-0.47,-1.59,13.76
607.0,0.21,-2.1,14.66
619.0,0.8,-2.33,15.15
632.0,0.71,-2.23,15.0
645.0,-0.03,-1.95,14.77
658.0,-0.62,-1.87,14.8
671.0,-0.56,-2.07,15.32
684.0,0.05,-2.37,15.86
697.0,0.52,-2.51,16.02
710.0,0.66,-2.56,16.27
722.0,0.37,-2.32,16.01
735.0,-0.19,-2.04,15.58
748.0,-0.79,-1.77,15.18
761.0,-1.01,-1.52,14.73
774.0,-0.88,-1.55,14.73
787.0,-0.42,-1.7,14.85
800.0,0.17,-1.87,14.8
812.0,0.64,-1.92,14.57
825.0,0.68,-1.83,14.26
838.0,0.04,-1.87,13.97
851.0,-0.48,-2.33,14.64
864.0,-0.62,-3.1,15.75
877.0,-0.26,-3.99,16.53
890.0,0.26,-4.01,15.86
903.0,0.64,-3.23,13.52
915.0,0.36,-2.3,11.29
928.0,-0.6,-2.01,10.72
941.0,-1.39,-2.22,11.32
954.0,-1.58,-2.66,11.44
967.0,-0.99,-2.63,10.5
980.0,-0.61,-2.1,8.97
993.0,-0.33,-1.6,7.69
1005.0,0.05,-1.34,7.07
1018.0,0.19,-1.41,6.83
1031.0,0.24,-1.58,6.84
1044.0,0.69,-1.69,6.46
1057.0,1.1,-1.51,5.72
1070.0,1.47,-1.28,5.23
1083.0,1.65,-1.06,5.0
1095.0,1.36,-1.03,5.03
1108.0,0.77,-0.99,5.14
1121.0,0.4,-1.03,5.31
1134.0,0.48,-1.07,5.22
1147.0,0.86,-0.86,4.98
1160.0,1.1,-0.5,4.45
1173.0,1.06,-0.1,3.65
1185.0,0.8,0.22,3.3
1198.0,0.49,0.39,3.29
1211.0,0.16,0.35,3.68
1224.0,0.08,0.18,4.48
1237.0,0.13,0.07,4.98
1250.0,0.09,0.09,5.11
1263.0,-0.06,0.1,5.12
1275.0,-0.13,-0.09,5.5
1288.0,-0.21,-0.45,6.1
1301.0,-0.16,-0.8,6.62
1314.0,-0.11,-1.08,7.01
1327.0,-0.11,-1.06,7.18
1340.0,-0.08,-0.91,7.11
1353.0,0.19,-0.75,7.29
1365.0,0.5,-0.43,7.71
1378.0,0.44,-0.06,8.11
1391.0,-0.32,0.46,7.35
1404.0,-1.02,0.72,6.85
1417.0,-0.99,-0.3,8.78
1430.0,-0.56,-1.05,11.07
1443.0,-0.13,-1.27,11.78
1456.0,0.35,-1.24,11.4
1468.0,0.87,-1.0,10.54
1481.0,1.51,-0.54,9.44
1494.0,1.44,-0.07,7.83
1507.0,0.97,-0.89,8.58
1520.0,0.76,-3.05,12.76
1533.0,0.82,-4.81,16.55
1546.0,1.03,-5.96,18.97
1558.0,1.53,-5.63,18.88
1571.0,1.56,-4.13,16.21
1584.0,1.28,-2.51,13.24
1597.0,0.81,-1.68,11.73
1610.0,0.53,-2.16,13.04
1623.0,0.39,-2.93,14.84
1636.0,0.43,-3.37,15.79
1648.0,0.63,-3.3,15.62
1661.0,0.87,-3.0,15.18
1674.0,0.8,-2.73,14.85
1687.0,0.69,-2.69,15.09
1700.0,0.36,-2.75,15.33
1713.0,-0.04,-2.6,14.91
1726.0,-0.23,-2.35,14.23
1738.0,-0.2,-2.09,13.48
1751.0,0.25,-2.31,13.91
1764.0,0.77,-2.58,14.4
1777.0,0.97,-2.91,14.92
1790.0,0.85,-2.85,14.71
1803.0,0.49,-2.41,13.44
1816.0,-0.35,-1.72,12.04
1828.0,-0.71,-1.24,11.27
1841.0,-0.58,-1.13,10.73
1854.0,-0.02,-1.74,11.19
1867.0,0.57,-2.85,12.69
1880.0,0.81,-3.78,13.63
1893.0,-0.01,-3.88,13.1
1906.0,-1.45,-3.4,11.82
1919.0,-2.21,-3.01,10.3
1931.0,-1.87,-2.83,9.44
1944.0,-1.05,-2.87,9.28
1957.0,-0.47,-2.8,9.23
1970.0,0.12,-2.62,9.11
1983.0,0.54,-2.18,8.3
1996.0,0.83,-1.57,6.76
2009.0,0.9,-0.82,5.12
2022.0,0.7,-0.46,4.45
2034.0,0.77,-0.67,4.83
2047.0,1.04,-0.93,5.72
2060.0,1.14,-1.15,6.23
2073.0,1.17,-1.09,6.54
2086.0,0.87,-0.82,6.21
2099.0,0.46,-0.38,5.39
2112.0,0.32,-0.0,4.52
2124.0,0.53,0.14,4.07
2137.0,0.81,0.07,3.84
2150.0,0.96,-0.06,4.02
2163.0,0.76,-0.36,4.63
2176.0,0.47,-0.63,5.29
2189.0,0.23,-0.79,5.81
2201.0,0.05,-0.7,5.98
2214.0,-0.17,-0.48,5.75
2227.0,-0.41,-0.22,5.21
2240.0,-0.35,-0.13,4.9
2253.0,-0.09,-0.4,5.07
2266.0,0.25,-0.84,5.59
2279.0,0.61,-1.39,6.47
2292.0,0.77,-1.89,7.48
2304.0,0.55,-2.34,8.27
2317.0,0.34,-2.27,8.32
2330.0,0.3,-1.96,7.57
2343.0,0.47,-1.58,7.24
2356.0,0.51,-1.18,6.87
2369.0,0.62,-0.97,6.62
2382.0,0.7,-1.36,7.54
2394.0,0.94,-1.99,9.29
2407.0,1.15,-2.27,10.38
2420.0,1.07,-2.15,10.55
2433.0,0.88,-1.4,9.39
2446.0,0.48,-0.72,8.5
2459.0,0.22,-0.88,9.39
2472.0,-0.24,-1.54,11.1
2484.0,-0.65,-2.36,12.96
2497.0,-0.4,-3.25,14.9
2510.0,0.17,-3.64,15.74
2523.0,0.59,-3.15,14.91
2536.0,0.48,-2.16,13.1
2549.0,-0.13,-1.27,11.94
2562.0,-0.82,-1.15,12.41
2575.0,-1.23,-1.73,14.05
2587.0,-1.28,-2.4,15.42
2600.0,-0.98,-2.91,16.26
2613.0,-0.5,-3.05,16.12
2626.0,-0.11,-2.86,15.39
2639.0,0.0,-2.62,14.82
2652.0,-0.14,-2.67,14.93
2665.0,-0.39,-3.0,15.61
2677.0,-0.36,-3.34,16.24
2690.0,-0.08,-3.34,16.1
2703.0,0.24,-3.21,15.57
2716.0,0.56,-3.07,15.0
2729.0,0.53,-2.96,14.56
2742.0,0.25,-2.93,14.54
2755.0,-0.21,-2.89,14.48
2768.0,-0.44,-2.81,14.35
2780.0,-0.4,-2.86,14.24
2793.0,-0.25,-2.98,14.03
2806.0,-0.09,-3.12,13.81
2819.0,-0.11,-3.37,13.3
2832.0,-0.05,-3.28,12.36
2845.0,-0.26,-2.89,11.24
2858.0,-0.5,-2.61,10.55
2871.0,-0.86,-2.4,10.2
2883.0,-1.27,-2.22,9.73
2896.0,-1.43,-2.02,8.99
2909.0,-1.02,-1.95,8.11
2922.0,-0.17,-2.16,7.79
2935.0,0.6,-2.52,7.78
2948.0,1.03,-2.66,7.57
2961.0,1.1,-2.51,6.93
2973.0,0.69,-2.05,6.09
2986.0,0.62,-1.64,5.43
2999.0,1.01,-1.29,5.05
3012.0,1.43,-0.89,4.63
3025.0,1.45,-0.52,4.27
3038.0,1.11,-0.23,3.95
3051.0,0.68,0.03,3.68
3063.0,0.44,0.06,3.61
3076.0,0.64,-0.15,4.13
3089.0,0.95,-0.49,4.95
3102.0,1.08,-0.5,5.35
3115.0,1.07,-0.37,5.23
3128.0,1.03,0.03,4.65
3141.0,0.96,0.59,3.63
3153.0,0.88,0.74,3.25
3166.0,0.89,0.64,3.46
3179.0,0.78,0.25,4.3
3192.0,0.58,-0.4,5.59
3205.0,0.46,-0.94,6.6
3218.0,0.51,-1.28,7.21
3231.0,0.59,-1.39,7.14
3243.0,0.66,-1.35,6.51
3256.0,0.68,-1.58,6.21
3269.0,0.85,-2.29,7.28
3282.0,1.1,-2.84,8.53
3295.0,1.31,-3.01,9.67
3308.0,1.31,-2.54,10.23
3321.0,1.01,-1.52,9.39
3333.0,0.48,-0.52,7.74
3346.0,-0.04,-0.1,6.9
3359.0,0.05,-0.46,8.15
3372.0,-0.08,-1.39,10.96
3385.0,-0.04,-2.05,13.04
3398.0,-0.16,-2.41,14.13
3411.0,-0.09,-2.39,14.07
3423.0,0.3,-1.96,13.35
3436.0,0.5,-1.32,12.17
3449.0,0.38,-0.56,10.77
3462.0,0.24,-0.58,10.54
3475.0,0.33,-1.37,12.2
3488.0,0.47,-2.32,13.96
3501.0,0.53,-3.11,15.44
3513.0,0.76,-3.4,16.2
3526.0,0.97,-3.04,15.67
3539.0,0.86,-2.5,14.75
3552.0,0.77,-2.15,14.25
3565.0,0.58,-2.04,14.37
3578.0,0.35,-2.03,14.53
3591.0,0.25,-2.11,14.58
3604.0,0.41,-2.38,14.97
3616.0,0.7,-2.63,15.1
3629.0,1.08,-2.73,14.93
3642.0,1.07,-2.54,14.31
3655.0,0.77,-2.29,13.56
3668.0,0.45,-2.17,13.22
3681.0,0.28,-2.22,13.27
3694.0,0.46,-2.19,13.19
3706.0,0.66,-1.97,12.87
3719.0,0.78,-1.81,12.63
3732.0,0.7,-1.89,12.76
3745.0,0.54,-2.03,12.84
3758.0,0.15,-2.29,12.88
3771.0,-0.02,-2.67,13.06
3784.0,-0.31,-2.9,12.94
3796.0,-0.02,-2.72,12.22
3809.0,0.3,-2.69,11.51
3822.0,0.66,-2.81,11.23
3835.0,0.47,-2.96,11.28
3848.0,0.08,-3.17,11.18
3861.0,-0.34,-2.93,10.52
3874.0,-0.61,-2.17,8.7
3886.0,-0.7,-1.16,6.67
3899.0,-0.71,-0.92,5.98
3912.0,-0.46,-1.46,6.97
3925.0,0.06,-2.22,8.12
3938.0,0.54,-2.73,8.49
3951.0,0.74,-2.51,7.63
3964.0,0.97,-1.92,5.86
3977.0,0.95,-1.1,4.2
3989.0,0.79,-0.57,3.19
4002.0,0.57,-0.66,3.86
4015.0,0.73,-1.05,4.85
4028.0,1.03,-1.3,5.69
4041.0,1.07,-1.49,6.11
4054.0,1.11,-1.35,6.21
4067.0,1.1,-0.78,5.4
4079.0,1.1,0.0,4.11
4092.0,0.84,0.82,2.57
4105.0,0.59,1.19,1.84
4118.0,0.57,0.88,2.37
4131.0,0.81,0.16,4.28
4144.0,0.79,-0.77,6.18
4156.0,0.69,-1.44,7.57
4169.0,0.78,-1.67,7.88
4182.0,0.87,-1.5,7.18
4195.0,0.99,-1.01,5.71
4208.0,1.13,-0.68,4.33
4221.0,1.31,-0.94,4.75
4234.0,1.45,-1.7,6.6
4246.0,1.29,-2.45,8.56
4259.0,1.48,-2.98,10.1
4272.0,1.8,-2.91,10.33
4285.0,1.88,-2.15,8.73
4298.0,1.52,-1.16,6.92
4311.0,0.79,-1.34,7.59
4324.0,0.32,-2.0,10.58
4336.0,-0.09,-3.17,14.02
4349.0,-0.57,-3.9,16.37
4362.0,-0.85,-3.77,16.3
4375.0,-0.87,-2.47,13.24
4388.0,-0.65,-1.19,10.26
4401.0,-0.55,-1.27,9.57
4414.0,0.39,-1.93,11.76
4427.0,0.63,-2.86,14.29
4439.0,0.21,-3.39,15.81
4452.0,-0.46,-3.23,15.84
4465.0,-0.92,-2.48,14.48
4478.0,-1.04,-1.87,13.09
4491.0,-0.95,-1.64,12.75
4504.0,-0.64,-1.91,13.13
4517.0,-0.17,-2.33,13.82
4530.0,0.39,-2.61,14.47
4542.0,0.58,-2.8,14.69
4555.0,0.33,-2.67,14.48
4568.0,-0.14,-2.57,14.31
4581.0,-0.4,-2.6,14.41
4594.0,-0.4,-2.73,14.71
4607.0,-0.29,-2.76,14.91
4620.0,-0.48,-2.71,14.92
4632.0,-0.4,-2.88,15.3
4645.0,-0.12,-3.08,15.56
4658.0,0.04,-3.05,15.11
4671.0,-0.19,-2.92,14.45
4684.0,-0.51,-2.98,14.17
4697.0,-0.73,-3.05,13.64
4710.0,-1.29,-2.78,12.65
4723.0,-1.65,-2.44,11.62
4735.0,-1.27,-1.69,9.89
4748.0,-0.06,-1.06,8.16
4761.0,1.05,-0.87,7.33
4774.0,1.15,-1.05,7.15
4787.0,0.73,-1.79,8.3
4800.0,0.35,-2.79,9.67
4813.0,0.2,-3.59,10.42
4826.0,0.15,-3.79,10.18
4838.0,-0.06,-3.41,8.79
4851.0,-0.59,-2.56,7.0
4864.0,-0.7,-2.26,6.21
4877.0,-0.31,-2.59,7.04
4890.0,0.25,-2.85,7.79
4903.0,0.73,-2.95,7.5
4916.0,1.11,-2.61,6.48
4928.0,1.13,-1.92,4.94
4941.0,1.05,-1.1,3.16
4954.0,1.08,-0.64,2.11
4967.0,1.23,-0.62,2.32
4980.0,1.51,-0.86,3.17
4993.0,1.46,-1.21,4.55
5006.0,1.13,-1.51,5.19
5018.0,0.84,-1.28,4.91
5031.0,0.91,-0.81,3.67
5044.0,1.15,-0.55,3.05
5057.0,1.36,-0.81,3.54
5070.0,1.48,-1.33,4.58
5083.0,1.31,-1.96,6.36
5096.0,1.05,-2.52,7.5
5108.0,0.56,-2.38,7.53
5121.0,0.26,-2.07,7.23
5134.0,0.2,-1.91,7.15
5147.0,0.3,-1.87,7.24
5160.0,0.51,-1.93,7.25
5173.0,0.86,-2.2,7.57
5186.0,1.08,-2.59,8.51
5198.0,0.96,-2.92,9.24
5211.0,0.65,-2.9,9.67
5224.0,0.03,-2.82,9.78
5237.0,-0.33,-2.82,10.0
5250.0,-0.41,-2.83,10.12
5263.0,-0.41,-2.93,10.72
5276.0,-0.33,-2.83,11.02
5289.0,-0.26,-2.49,10.91
5301.0,-0.44,-2.12,10.53
5314.0,-0.5,-2.08,10.5
5327.0,-0.79,-2.33,11.06
5340.0,-0.63,-2.8,12.13
5353.0,-0.42,-3.18,13.17
5366.0,-0.34,-3.35,13.78
5379.0,-0.39,-3.42,14.35
5392.0,-0.24,-3.24,14.48
5404.0,-0.51,-2.72,13.77
5417.0,-0.83,-2.04,12.85
5430.0,-0.72,-1.88,12.83
5443.0,-0.32,-2.25,13.71
5456.0,-0.2,-2.58,14.43
5469.0,-0.12,-2.83,15.17
5482.0,-0.17,-2.83,15.28
5495.0,-0.28,-2.85,15.44
5507.0,-0.53,-3.03,15.9
5520.0,-0.8,-3.22,16.18
5533.0,-0.94,-3.15,15.93
5546.0,-0.88,-2.85,15.14
5559.0,-0.71,-2.87,14.82
5572.0,-0.41,-3.21,15.14
5585.0,0.08,-3.73,15.65
5598.0,0.3,-3.88,15.44
5610.0,0.28,-3.71,14.76
5623.0,0.03,-3.49,14.18
5636.0,-0.17,-2.84,12.57
5649.0,-0.47,-2.56,11.63
5662.0,-0.52,-2.68,11.71
5675.0,-0.25,-3.03,11.62
5688.0,0.4,-3.29,11.72
5700.0,0.62,-3.07,10.95
5713.0,0.35,-2.48,9.9
5726.0,-0.25,-1.98,8.65
5739.0,-0.81,-1.71,8.04
5752.0,-0.92,-1.61,7.53
5765.0,-0.53,-1.41,6.93
5778.0,0.21,-1.35,6.64
5791.0,1.03,-1.3,6.25
5803.0,1.29,-1.31,5.71
5816.0,0.93,-1.16,5.28
5829.0,0.23,-1.22,5.35
5842.0,-0.08,-1.52,5.78
5855.0,0.02,-2.01,6.54
5868.0,0.53,-2.34,7.05
5881.0,1.13,-2.17,6.77
5893.0,1.69,-1.54,5.29
5906.0,1.93,-0.81,3.88
5919.0,1.58,-0.1,2.8
5932.0,1.22,0.37,2.15
5945.0,1.3,0.19,2.67
5958.0,1.35,-0.47,4.5
5971.0,1.49,-0.69,5.33
5983.0,1.4,-1.0,5.91
5996.0,1.0,-0.95,5.63
6009.0,0.65,-0.57,4.91
6022.0,0.3,-0.24,4.42
6035.0,-0.13,-0.37,4.71
6048.0,-0.16,-1.01,6.35
6061.0,0.24,-1.66,7.83
6073.0,0.84,-1.87,8.5
6086.0,1.23,-1.73,7.72
6099.0,1.26,-1.14,6.36
6112.0,0.9,-0.61,4.85
6125.0,0.43,-0.88,5.32
6138.0,-0.14,-1.8,7.76
6151.0,-0.15,-2.36,10.15
6163.0,0.25,-2.49,11.25
6176.0,0.24,-1.82,9.65
6189.0,0.13,-0.28,6.74
6202.0,-0.28,1.25,4.77
6215.0,-0.91,0.44,6.53
6228.0,-1.27,-1.18,9.61
6241.0,-1.16,-3.08,13.42
6254.0,-0.38,-4.4,16.75
6266.0,0.08,-4.91,17.92
6279.0,0.2,-3.93,15.99
6292.0,-0.12,-2.68,13.58
6305.0,-0.42,-1.76,12.33
6318.0,-0.72,-1.61,12.58
6331.0,-1.0,-2.11,13.83
6344.0,-1.05,-2.71,14.98
6356.0,-0.69,-3.12,15.76
6369.0,0.03,-3.28,15.89
6382.0,0.47,-3.2,15.6
6395.0,0.3,-2.78,14.7
6408.0,-0.15,-2.47,14.2
6421.0,-0.53,-2.39,14.13
6434.0,-0.51,-2.42,14.3
6447.0,-0.38,-2.44,14.25
6459.0,-0.13,-2.43,13.97
6472.0,0.2,-2.5,13.88
6485.0,0.31,-2.64,13.89
6498.0,0.08,-2.79,13.98
6511.0,-0.0,-3.08,14.51
6524.0,0.04,-3.12,14.75
6537.0,0.22,-2.94,14.02
6549.0,0.55,-2.75,13.41
6562.0,0.77,-2.74,12.95
6575.0,0.68,-2.92,12.93
6588.0,0.72,-3.09,13.05
6601.0,0.53,-2.8,12.49
6614.0,-0.05,-2.45,12.02
6627.0,-0.82,-2.54,12.37
6639.0,-1.76,-2.83,12.55
6652.0,-2.15,-2.93,12.33
6665.0,-1.94,-2.77,11.45
6678.0,-1.36,-2.37,10.26
6691.0,-0.67,-1.96,9.05
6704.0,0.14,-1.46,7.97
6717.0,0.31,-1.25,7.49
6730.0,-0.0,-1.01,7.25
6742.0,-0.51,-0.86,6.9
6755.0,-0.93,-0.81,6.39
6768.0,-0.85,-0.84,6.05
6781.0,-0.2,-0.93,5.79
6794.0,0.31,-1.07,5.76
6807.0,0.5,-1.19,5.83
6820.0,0.59,-1.24,5.73
6833.0,0.76,-1.13,5.61
6845.0,1.12,-1.02,5.23
6858.0,1.39,-0.79,4.63
6871.0,1.3,-0.54,4.17
6884.0,1.2,-0.35,4.04
6897.0,1.09,-0.15,3.92
6910.0,1.05,-0.02,4.0
6923.0,1.23,0.14,4.0
6935.0,1.27,0.19,4.02
6948.0,1.37,0.2,4.12
6961.0,1.33,0.2,3.94
6974.0,1.37,0.06,3.91
6987.0,1.28,-0.54,4.99
7000.0,0.94,-1.26,6.44
7012.0,0.7,-1.5,7.21
7025.0,0.58,-1.43,7.63
7038.0,0.5,-1.29,7.74
7051.0,0.4,-1.18,7.78
7064.0,0.38,-1.15,7.26
7077.0,0.42,-1.15,6.88
7090.0,0.13,-1.45,7.31
7102.0,0.06,-1.66,7.77
7115.0,0.22,-1.95,8.55
7128.0,0.36,-2.28,9.59
7141.0,0.01,-2.43,10.62
7154.0,-0.78,-2.45,11.52
7167.0,-1.79,-2.55,12.65
7180.0,-2.19,-2.62,13.46
7193.0,-2.06,-2.35,13.04
7205.0,-1.44,-1.75,11.97
7218.0,-0.87,-1.39,11.03
7231.0,-0.01,-1.33,11.0
7244.0,0.64,-1.57,11.37
7257.0,0.65,-1.69,11.75
7270.0,0.53,-1.79,12.3
7283.0,0.63,-1.95,12.7
7295.0,1.16,-2.18,13.26
7308.0,1.7,-2.38,13.89
7321.0,2.14,-2.44,14.17
7334.0,2.23,-2.43,14.11
7347.0,2.1,-2.42,14.19
7360.0,2.05,-2.63,14.43
7373.0,2.01,-2.96,15.09
7385.0,2.16,-3.37,15.95
7398.0,2.42,-3.7,16.49
7411.0,2.6,-3.85,16.66
7424.0,2.29,-3.57,16.17
7437.0,1.71,-3.02,15.15
7450.0,1.16,-2.68,14.61
7463.0,0.96,-2.69,14.63
7475.0,0.9,-2.7,14.79
7488.0,0.69,-2.56,14.6
7501.0,0.08,-2.29,14.12
7514.0,-0.41,-2.36,14.11
7527.0,-0.6,-2.51,14.22
7540.0,-0.69,-2.49,13.7
7553.0,-0.27,-2.54,12.93
7566.0,-0.08,-2.77,12.63
7578.0,0.08,-3.02,12.32
7591.0,-0.11,-3.23,12.36
7604.0,-0.44,-3.51,12.15
7617.0,-0.64,-3.55,11.84
7630.0,-0.82,-3.62,11.36
7643.0,-0.6,-3.43,10.45
7656.0,-0.24,-2.89,9.19
7669.0,0.08,-2.1,7.71
7681.0,0.42,-1.47,6.63
7694.0,0.59,-1.3,6.25
7707.0,0.67,-1.26,5.78
7720.0,0.83,-1.19,5.67
7733.0,0.88,-1.04,5.69
7746.0,0.57,-0.9,5.93
7759.0,0.29,-0.7,5.85
7771.0,0.24,-0.31,5.32
7784.0,0.28,0.1,4.46
7797.0,0.47,0.33,3.64
7810.0,0.57,0.41,3.52
7823.0,0.97,0.37,3.94
7836.0,1.07,0.14,4.13
7848.0,1.03,0.06,4.38
7861.0,0.9,0.04,4.43
7874.0,0.84,0.03,4.22
7887.0,0.72,0.09,4.1
7900.0,0.75,0.22,3.99
7913.0,0.92,0.27,4.02
7926.0,1.13,0.2,4.26
7938.0,1.21,0.09,4.54
7951.0,1.11,-0.13,5.19
7964.0,0.97,-0.37,5.88
7977.0,0.71,-0.71,6.46
7990.0,0.57,-0.93,6.7
8003.0,0.51,-1.06,6.58
8015.0,0.62,-1.27,6.65
8028.0,0.65,-1.62,7.26
8041.0,0.81,-1.8,8.16
8054.0,0.8,-1.7,8.63
8067.0,0.88,-1.4,8.98
8080.0,0.73,-0.89,8.6
8093.0,0.26,-0.13,7.05
8105.0,-0.9,0.14,4.98
8118.0,-0.71,-0.94,7.35
8131.0,-0.23,-2.64,10.98
8144.0,0.44,-3.9,13.88
8157.0,0.93,-4.31,15.62
8170.0,0.88,-3.89,15.58
8183.0,0.27,-2.46,12.93
8196.0,-0.54,-1.01,9.77
8208.0,-1.18,-0.66,8.99
8221.0,-1.05,-1.6,10.6
8234.0,-0.36,-3.16,13.48
8247.0,0.57,-4.44,16.14
8260.0,1.06,-5.19,17.91
8273.0,0.66,-5.1,17.96
8286.0,-0.31,-4.56,17.32
8298.0,-1.0,-4.19,16.91
8311.0,-1.14,-4.01,16.85
8324.0,-0.81,-4.01,17.1
8337.0,-0.33,-4.27,17.66
8350.0,0.09,-4.42,17.75
8363.0,0.27,-4.26,16.94
8376.0,0.28,-3.91,15.81
8389.0,-0.03,-3.43,14.73
8401.0,-0.45,-3.11,14.31
8414.0,-0.69,-3.08,14.69
8427.0,-0.48,-3.45,15.34
8440.0,-0.05,-3.94,15.92
8453.0,0.17,-4.22,15.9
8466.0,0.03,-4.06,15.2
8479.0,-0.03,-3.71,14.39
8491.0,-0.17,-3.11,13.33
8504.0,-0.24,-2.48,12.08
8517.0,-0.3,-2.18,11.12
8530.0,0.05,-2.03,10.28
8543.0,0.45,-1.96,9.65
8556.0,0.69,-1.81,8.91
8569.0,0.34,-1.81,8.73
8582.0,-0.48,-1.81,8.45
8594.0,-0.74,-1.62,8.0
8607.0,-0.79,-1.61,7.7
8620.0,-0.46,-1.64,7.22
8633.0,-0.13,-1.42,6.73
8646.0,-0.01,-1.13,6.04
8659.0,0.03,-0.88,5.27
8672.0,0.28,-0.64,4.57
8685.0,0.64,-0.31,4.25
8697.0,0.79,-0.14,4.24
8710.0,0.89,-0.06,4.29
8723.0,1.01,0.06,4.17
8736.0,1.22,0.34,3.79
8749.0,1.32,0.74,3.3
8762.0,1.1,1.11,2.53
8774.0,0.68,1.38,1.96
8787.0,0.47,1.27,2.35
8800.0,0.54,0.89,3.48
8813.0,0.59,0.46,4.74
8826.0,0.64,0.09,6.08
8839.0,0.72,0.03,6.76
8852.0,0.52,0.23,6.65
8864.0,0.16,0.68,6.03
8877.0,-0.47,1.13,4.68
8890.0,-0.71,1.0,4.28
8903.0,-0.26,0.09,5.52
8916.0,0.31,-0.79,6.9
8929.0,0.84,-1.39,7.66
8941.0,1.29,-1.48,8.23
8954.0,1.53,-1.12,8.16
8967.0,1.68,-0.56,7.36
8980.0,1.5,-0.24,6.38
8993.0,1.0,-0.03,6.54
9006.0,0.25,0.11,6.96
9019.0,-0.09,-0.36,8.19
9031.0,0.5,-0.94,9.86
9044.0,1.25,-1.12,10.24
9057.0,1.27,-0.76,9.18
9070.0,0.71,-0.35,8.03
9083.0,-0.08,-0.33,7.76
9096.0,-0.37,-1.58,9.69
9109.0,-0.44,-3.05,12.46
9122.0,-0.17,-4.36,15.03
9134.0,0.22,-5.16,16.88
9147.0,0.37,-4.8,16.79
9160.0,-0.1,-3.52,14.55
9173.0,-0.75,-2.22,12.26
9186.0,-0.92,-1.96,11.94
9199.0,-0.64,-2.59,13.39
9212.0,-0.15,-3.4,14.86
9224.0,0.19,-4.1,16.2
9237.0,0.13,-4.31,17.02
9250.0,-0.12,-4.06,17.08
9263.0,-0.4,-3.55,16.51
9276.0,-0.77,-2.99,15.81
9289.0,-0.9,-2.76,15.63
9302.0,-0.93,-2.89,15.94
9315.0,-1.06,-3.04,16.14
9327.0,-1.1,-3.05,15.99
9340.0,-0.94,-3.06,15.91
9353.0,-0.7,-3.03,15.83
9366.0,-0.69,-2.82,15.26
9379.0,-0.84,-2.68,14.78
9392.0,-1.04,-2.67,14.72
9405.0,-1.12,-2.54,14.32
9418.0,-1.15,-2.15,13.72
9430.0,-0.9,-1.73,12.86
9443.0,-0.68,-1.52,11.96
9456.0,-0.27,-1.61,11.56
9469.0,-0.25,-1.88,11.58
9482.0,-0.24,-2.29,11.84
9495.0,-0.17,-2.42,11.5
9508.0,0.24,-2.09,10.22
9521.0,0.25,-1.5,8.54
9533.0,-0.51,-1.1,7.8
9546.0,-1.2,-1.11,7.65
9559.0,-1.48,-1.6,8.46
9572.0,-1.4,-2.17,9.09
9585.0,-1.22,-2.6,9.27
9598.0,-1.29,-2.69,8.81
9611.0,-1.21,-2.48,8.21
9624.0,-0.77,-2.19,7.47
9636.0,-0.27,-1.74,6.63
9649.0,0.31,-1.28,5.78
9662.0,0.5,-0.87,5.18
9675.0,0.71,-0.57,4.57
9688.0,0.37,-0.03,3.84
9701.0,0.2,0.27,3.32
9714.0,0.26,0.18,3.27
9726.0,0.42,0.02,3.88
9739.0,0.48,-0.15,4.26
9752.0,0.41,-0.27,4.49
9765.0,0.26,-0.37,4.85
9778.0,0.14,-0.37,5.05
9791.0,0.13,-0.23,5.07
9804.0,0.05,0.05,4.88
9816.0,-0.12,0.2,4.98
9829.0,-0.29,0.2,5.47
9842.0,-0.28,-0.02,5.98
9855.0,-0.11,-0.43,6.71
9868.0,0.39,-0.92,7.32
9881.0,0.85,-1.2,7.42
9894.0,1.02,-0.96,6.95
9906.0,0.84,-0.32,5.86
9919.0,0.49,0.33,5.42
9932.0,0.27,0.68,5.71
9945.0,-0.15,0.79,6.49
9958.0,-0.35,0.64,7.24
9971.0,-0.09,0.51,7.35
9984.0,0.14,0.36,7.27
9996.0,0.62,-0.05,7.65
10009.0,1.14,-0.65,8.61
10022.0,1.43,-1.17,9.42
10035.0,1.12,-1.53,10.41
10048.0,0.63,-1.77,10.96
10061.0,0.21,-1.89,11.7
10073.0,-0.02,-2.02,12.25
10086.0,0.16,-1.97,12.33
10099.0,0.39,-2.02,12.54
10112.0,0.65,-2.05,12.54
10125.0,0.65,-1.81,12.32
10138.0,0.57,-1.66,12.35
10151.0,0.35,-1.97,13.29
10164.0,0.18,-2.7,14.95
10176.0,0.29,-3.38,16.67
10189.0,0.7,-3.83,17.69
10202.0,1.04,-3.82,18.0
10215.0,0.67,-3.35,17.71
10228.0,-0.09,-2.8,17.34
10241.0,-0.7,-2.5,17.26
10254.0,-0.8,-2.33,17.16
10266.0,-0.45,-2.27,16.83
10279.0,-0.06,-2.33,16.37
10292.0,0.28,-2.54,16.23
10305.0,0.44,-2.78,16.29
10318.0,0.28,-2.97,16.33
10331.0,0.01,-2.9,15.72
10344.0,-0.03,-2.74,15.08
10356.0,-0.07,-2.66,14.47
10369.0,-0.29,-2.62,13.87
10382.0,-0.58,-2.82,13.71
10395.0,-0.73,-3.09,13.68
10408.0,-0.55,-3.1,13.21
10421.0,-0.27,-2.68,12.02
10434.0,-0.06,-1.93,10.37
10447.0,-0.13,-1.05,8.76
10460.0,-0.4,-0.46,7.76
10472.0,-0.93,-0.34,7.37
10485.0,-1.02,-0.7,8.02
10498.0,-0.44,-1.35,9.06
10511.0,0.35,-1.92,9.45
10524.0,0.54,-2.1,9.37
10537.0,0.38,-2.03,9.0
10550.0,-0.01,-1.74,8.22
10562.0,-0.33,-1.38,7.4
10575.0,-0.46,-1.03,6.57
10588.0,-0.3,-0.86,5.94
10601.0,0.2,-0.73,5.6
10614.0,0.79,-0.76,5.44
10627.0,1.15,-0.63,5.29
10640.0,1.47,-0.46,5.01
10652.0,1.46,-0.23,4.9
10665.0,0.86,-0.08,4.68
10678.0,0.09,0.02,4.69
10691.0,-0.29,-0.01,4.87
10704.0,-0.3,-0.1,5.14
10717.0,0.2,-0.06,5.32
10730.0,0.82,-0.01,5.37
10743.0,1.47,0.28,5.21
10755.0,1.87,0.62,4.81
10768.0,1.73,1.0,4.38
10781.0,1.2,1.23,3.98
10794.0,0.5,1.23,4.0
10807.0,0.03,1.0,4.19
10820.0,0.08,0.52,4.7
10832.0,0.39,0.04,5.36
10845.0,0.77,-0.43,5.95
10858.0,1.21,-0.82,6.73
10871.0,1.34,-1.09,7.06
10884.0,0.83,-1.36,7.58
10897.0,0.12,-1.41,7.78
10910.0,-0.3,-1.31,8.06
10922.0,-0.39,-1.12,8.11
10935.0,-0.45,-1.02,8.15
10948.0,-0.06,-1.19,9.0
10961.0,0.24,-1.53,10.25
10974.0,0.23,-1.56,10.74
10987.0,-0.07,-1.17,10.05
11000.0,-0.61,-0.75,9.15
11013.0,-1.05,-0.7,9.25
11025.0,-1.32,-1.44,11.1
11038.0,-1.38,-2.21,12.96
11051.0,-1.4,-2.69,13.97
11064.0,-1.19,-2.96,14.94
11077.0,-0.88,-2.87,15.14
11090.0,-0.82,-2.66,15.07
11103.0,-0.84,-2.64,15.64
11116.0,-0.71,-2.52,16.0
11128.0,-0.72,-2.21,15.84
11141.0,-0.77,-1.81,15.24
11154.0,-0.7,-1.55,14.77
11167.0,-0.32,-1.55,14.86
11180.0,-0.25,-1.7,15.43
11193.0,-0.53,-1.96,16.01
11206.0,-0.75,-2.04,16.07
11219.0,-0.68,-2.0,15.72
11231.0,-0.48,-1.78,15.02
11244.0,-0.43,-1.6,14.64
11257.0,-0.48,-1.6,14.71
11270.0,-0.66,-1.87,15.37
11283.0,-0.52,-2.25,15.86
11296.0,-0.38,-2.49,15.73
11309.0,-0.22,-2.44,15.15
11322.0,-0.11,-2.26,14.62
11334.0,-0.18,-2.1,14.03
11347.0,-0.79,-2.03,13.54
11360.0,-1.27,-2.09,13.27
11373.0,-1.03,-1.95,12.52
11386.0,-0.34,-1.58,11.31
11399.0,0.41,-1.07,9.72
11412.0,0.68,-0.68,8.81
11424.0,0.69,-0.58,8.11
11437.0,0.72,-1.22,8.91
11450.0,0.83,-2.16,9.95
11463.0,0.74,-2.83,10.48
11476.0,0.67,-2.88,9.99
11489.0,0.72,-2.54,9.05
11502.0,1.0,-1.87,7.44
11514.0,1.34,-1.21,5.98
11527.0,1.16,-0.79,5.25
11540.0,0.94,-0.91,5.58
11553.0,0.92,-1.41,6.85
11566.0,0.97,-1.87,7.5
11579.0,1.34,-1.85,7.17
11592.0,1.73,-1.35,5.71
11605.0,1.75,-0.59,3.88
11617.0,1.46,0.08,2.59
11630.0,1.22,0.12,2.92
11643.0,1.15,-0.16,4.12
11656.0,1.11,-0.1,4.56
11669.0,0.86,0.05,4.6
11682.0,0.76,-0.03,4.91
11694.0,0.81,-0.17,5.29
11707.0,1.17,-0.06,5.19
11720.0,1.47,0.11,4.62
11733.0,1.7,0.33,4.13
11746.0,1.76,0.3,4.19
11759.0,1.66,-0.04,4.87
11772.0,1.5,-0.75,6.25
11784.0,1.66,-1.21,6.99
11797.0,1.95,-1.31,6.75
11810.0,2.03,-1.35,6.57
11823.0,1.85,-1.59,7.09
11836.0,1.52,-1.87,7.76
11849.0,1.07,-1.8,8.05
11862.0,0.61,-1.43,7.62
11874.0,0.28,-0.99,6.94
11887.0,-0.01,-0.64,6.08
11900.0,0.04,-0.36,5.31
11913.0,0.36,-0.47,5.72
11926.0,0.65,-1.24,7.32
11939.0,0.77,-2.44,9.97
11952.0,0.57,-3.4,12.16
11964.0,0.24,-3.65,13.41
11977.0,-0.04,-3.29,13.56
11990.0,-0.2,-2.65,13.08
12003.0,-0.51,-2.07,12.38
12016.0,-0.89,-1.65,11.75
12029.0,-1.28,-1.81,12.19
12042.0,-1.03,-2.42,13.6
12055.0,-0.58,-2.89,14.85
12067.0,-0.4,-3.18,15.91
12080.0,-0.59,-3.2,16.57
12093.0,-0.91,-3.03,16.65
12106.0,-1.22,-2.66,16.2
12119.0,-1.41,-2.35,15.64
12132.0,-1.24,-2.42,15.76
12145.0,-0.86,-2.6,16.18
12158.0,-0.72,-2.89,16.8
12170.0,-0.6,-3.05,16.97
12183.0,-0.55,-2.94,16.52
12196.0,-0.59,-2.75,15.88
12209.0,-0.59,-2.59,15.25
12222.0,-0.62,-2.67,14.98
12235.0,-0.39,-2.92,15.2
12248.0,-0.16,-2.97,15.03
12261.0,-0.13,-2.79,14.52
12273.0,-0.27,-2.55,13.73
12286.0,-0.3,-2.58,13.61
12299.0,-0.39,-2.88,13.8
12312.0,-0.19,-3.1,13.83
12325.0,0.06,-3.14,13.53
12338.0,0.09,-2.88,12.73
12351.0,-0.49,-2.47,11.7
12364.0,-0.93,-2.04,10.42
12376.0,-0.8,-2.0,10.08
12389.0,-0.18,-2.14,9.89
12402.0,0.47,-2.09,9.39
12415.0,1.03,-1.74,8.6
12428.0,0.85,-1.5,8.01
12441.0,0.4,-1.08,7.44
12454.0,-0.45,-0.71,6.43
12466.0,-0.78,-0.71,6.06
12479.0,-0.52,-1.05,6.55
12492.0,0.18,-1.49,7.2
12505.0,0.78,-1.83,7.35
12518.0,1.12,-1.76,6.9
12531.0,1.13,-1.33,6.01
12544.0,1.03,-0.83,5.07
12556.0,0.89,-0.42,4.23
12569.0,0.67,-0.18,3.85
12582.0,0.5,-0.21,4.14
12595.0,0.64,-0.46,4.95
12608.0,0.93,-0.61,5.37
12621.0,0.98,-0.56,5.37
12634.0,0.85,-0.36,5.11
12646.0,0.71,-0.11,4.67
12659.0,0.77,0.19,4.32
12672.0,1.03,0.28,4.3
12685.0,1.11,0.19,4.56
12698.0,0.92,0.09,5.11
12711.0,0.66,-0.14,6.0
12724.0,0.55,-0.34,6.75
12736.0,0.38,-0.28,6.68
12749.0,0.56,-0.08,6.09
12762.0,0.68,0.01,5.86
12775.0,0.9,-0.04,5.8
12788.0,0.99,-0.47,6.47
12801.0,0.87,-1.08,7.98
12814.0,0.56,-1.49,9.16
12826.0,0.62,-1.48,9.58
12839.0,0.85,-1.1,8.92
12852.0,0.84,-0.34,7.5
