timestamp,accX,accY,accZ
2.0,0.27,-1.1,13.35
15.0,0.25,-1.31,11.62
28.0,0.4,-2.21,15.0
41.0,0.35,-2.93,16.29
54.0,0.42,-3.46,16.88
66.0,0.65,-3.67,16.92
79.0,0.79,-3.39,16.19
92.0,0.8,-2.81,15.09
105.0,0.66,-2.36,14.11
118.0,0.66,-2.3,13.98
131.0,0.72,-2.43,14.09
144.0,0.6,-2.43,13.75
156.0,0.47,-2.41,13.55
169.0,0.22,-2.41,13.33
182.0,-0.12,-2.21,12.84
195.0,-0.5,-1.86,12.0
208.0,-0.68,-1.55,11.19
221.0,-0.45,-1.4,10.79
234.0,-0.3,-1.34,10.45
247.0,-0.19,-1.32,10.0
259.0,-0.49,-1.51,9.62
272.0,-0.73,-1.86,9.9
285.0,-0.39,-2.06,9.78
298.0,-0.27,-2.12,9.53
311.0,0.03,-1.87,8.84
324.0,0.33,-1.45,7.58
337.0,0.27,-1.25,6.84
350.0,0.34,-1.24,7.02
362.0,0.66,-1.36,7.14
375.0,0.98,-1.3,6.83
388.0,1.17,-0.94,6.38
401.0,1.17,-0.23,5.45
414.0,1.15,0.31,4.41
427.0,0.96,0.48,4.1
439.0,0.96,0.3,4.46
452.0,1.13,-0.01,5.11
465.0,1.25,-0.16,5.46
478.0,1.32,-0.02,5.37
491.0,1.34,0.22,4.97
504.0,1.42,0.5,4.71
517.0,1.5,0.8,4.44
529.0,1.57,0.97,4.52
542.0,1.54,0.88,4.89
555.0,1.42,0.66,5.43
568.0,1.1,0.48,5.65
581.0,0.64,0.14,5.88
594.0,0.3,-0.16,6.37
606.0,0.3,-0.47,6.8
619.0,0.64,-0.59,6.88
632.0,0.86,-0.58,6.92
645.0,0.65,-0.73,7.26
658.0,0.33,-1.09,8.32
671.0,-0.06,-1.38,9.17
684.0,-0.21,-1.22,9.63
697.0,0.13,-0.7,9.18
709.0,0.77,-0.09,8.45
722.0,1.1,0.29,7.82
735.0,0.76,0.53,7.44
748.0,0.19,0.7,7.56
761.0,-0.15,0.26,8.23
774.0,0.25,-0.6,9.59
786.0,0.91,-1.38,11.25
799.0,1.2,-1.66,12.12
812.0,1.07,-1.75,12.36
825.0,0.9,-1.71,12.62
838.0,0.71,-1.63,12.8
851.0,0.66,-1.75,13.02
864.0,0.86,-2.06,13.72
876.0,1.1,-2.31,14.33
889.0,1.32,-2.33,14.62
902.0,1.41,-2.19,14.62
915.0,1.36,-2.04,14.68
928.0,1.06,-2.11,14.98
941.0,0.76,-2.24,15.5
954.0,0.53,-2.37,15.82
966.0,0.44,-2.29,15.77
979.0,0.56,-2.08,15.31
992.0,0.72,-1.84,14.74
1005.0,0.64,-1.75,14.42
1018.0,0.29,-1.93,14.55
1031.0,-0.17,-2.26,14.96
1044.0,-0.42,-2.51,15.28
1057.0,-0.41,-2.76,15.39
1069.0,0.11,-3.03,15.58
1082.0,0.71,-3.11,15.4
1095.0,0.97,-2.96,14.79
1108.0,0.73,-2.77,14.1
1121.0,0.26,-2.61,13.55
1134.0,-0.1,-2.42,12.92
1147.0,-0.23,-2.27,12.38
1159.0,0.12,-2.22,11.89
1172.0,0.6,-2.25,11.51
1185.0,1.0,-2.28,11.14
1198.0,1.14,-2.19,10.65
1211.0,1.13,-1.86,9.7
1224.0,0.88,-1.38,8.68
1237.0,0.68,-1.04,8.18
1249.0,0.32,-0.99,8.13
1262.0,0.08,-0.95,7.91
1275.0,-0.01,-0.68,7.24
1288.0,0.11,-0.32,6.58
1301.0,0.51,0.0,6.15
1314.0,0.88,0.31,5.62
1327.0,1.18,0.78,4.86
1339.0,1.32,1.03,4.71
1352.0,1.04,0.78,4.64
1365.0,0.59,0.38,4.94
1378.0,0.52,-0.33,6.02
1391.0,0.83,-1.05,7.1
1404.0,1.25,-1.16,7.36
1417.0,1.63,-0.63,6.68
1429.0,1.73,0.26,5.09
1442.0,1.61,1.03,3.71
1455.0,1.14,1.27,2.99
1468.0,0.51,0.86,3.68
1481.0,0.41,0.19,5.08
1494.0,0.77,-0.42,6.43
1506.0,1.25,-0.7,7.1
1519.0,1.49,-0.42,6.79
1532.0,1.31,0.04,6.02
1545.0,1.01,0.45,5.04
1558.0,0.54,0.52,4.48
1571.0,0.16,0.05,5.23
1584.0,0.01,-0.7,6.39
1596.0,0.47,-1.59,8.01
1609.0,1.32,-2.15,9.41
1622.0,2.03,-2.31,9.89
1635.0,1.94,-2.15,9.76
1648.0,0.95,-1.38,8.22
1661.0,0.11,-0.69,7.17
1674.0,-0.09,-0.27,7.55
1686.0,0.46,-0.22,8.23
1699.0,1.56,-0.73,9.44
1712.0,2.27,-1.35,10.95
1725.0,2.21,-1.69,11.95
1738.0,1.56,-1.37,11.79
1751.0,0.25,-0.51,10.74
1764.0,-0.33,-0.13,10.63
1776.0,-0.4,-0.48,11.46
1789.0,-0.03,-1.31,13.02
1802.0,0.44,-2.0,14.26
1815.0,0.89,-2.3,14.83
1828.0,1.1,-2.38,15.05
1841.0,0.97,-2.22,14.94
1854.0,0.62,-1.96,14.75
1866.0,0.14,-1.56,14.31
1879.0,-0.11,-1.05,13.49
1892.0,-0.06,-0.79,13.0
1905.0,0.4,-1.03,13.31
1918.0,0.71,-1.41,13.83
1931.0,0.68,-1.74,14.28
1944.0,0.29,-2.01,14.74
1957.0,-0.16,-2.16,15.02
1969.0,-0.34,-2.14,15.16
1982.0,-0.23,-1.89,14.96
1995.0,-0.2,-1.61,14.64
2008.0,-0.0,-1.44,14.5
2021.0,0.13,-1.56,14.53
2034.0,0.28,-1.93,14.94
2047.0,0.45,-2.36,15.41
2059.0,0.23,-2.76,15.47
2072.0,0.0,-2.95,15.44
2085.0,-0.2,-3.04,15.02
2098.0,-0.43,-2.93,14.5
2111.0,-0.49,-2.44,13.32
2124.0,-0.23,-1.81,11.87
2137.0,-0.19,-1.08,10.15
2150.0,-0.06,-0.21,8.58
2162.0,0.19,0.22,7.27
2175.0,0.11,-0.42,7.8
2188.0,-0.14,-1.76,9.47
2201.0,-0.27,-2.67,10.66
2214.0,-0.09,-2.81,10.5
2227.0,0.08,-2.27,9.32
2240.0,0.2,-1.27,7.59
2252.0,0.32,-0.36,5.62
2265.0,0.27,-0.33,5.29
2278.0,0.37,-0.83,6.42
2291.0,0.75,-1.18,6.74
2304.0,1.05,-1.16,6.43
2317.0,1.11,-0.79,5.79
2330.0,1.11,-0.4,5.07
2342.0,0.94,-0.34,4.86
2355.0,0.81,-0.41,5.01
2368.0,0.78,-0.45,5.2
2381.0,0.77,-0.42,5.19
2394.0,0.82,-0.32,5.06
2407.0,0.84,-0.25,4.93
2420.0,0.89,-0.15,4.89
2432.0,0.91,-0.16,5.12
2445.0,0.74,-0.25,5.6
2458.0,0.52,-0.47,6.22
2471.0,0.27,-0.61,6.71
2484.0,0.05,-0.4,6.66
2497.0,-0.09,0.0,6.02
2510.0,-0.19,0.25,5.35
2522.0,0.13,-0.02,5.78
2535.0,0.7,-0.54,6.5
2548.0,0.92,-1.07,7.22
2561.0,0.84,-1.35,7.82
2574.0,0.5,-1.34,7.93
2587.0,0.44,-1.08,7.91
2600.0,0.41,-0.71,7.68
2612.0,0.52,-0.62,7.73
2625.0,0.79,-0.95,8.55
2638.0,1.14,-1.42,9.39
2651.0,1.68,-1.67,9.98
2664.0,1.78,-1.66,10.17
2677.0,1.14,-1.64,10.33
2690.0,0.18,-1.62,10.97
2703.0,-0.37,-1.66,11.88
2715.0,-0.25,-1.73,12.39
2728.0,0.26,-1.62,12.44
2741.0,0.66,-1.46,12.21
2754.0,0.67,-1.29,12.04
2767.0,0.43,-1.08,12.18
2780.0,-0.17,-0.98,12.51
2793.0,-0.78,-0.89,13.0
2805.0,-1.17,-0.94,13.21
2818.0,-1.16,-1.09,13.64
2831.0,-0.57,-1.6,14.42
2844.0,0.07,-2.1,15.13
2857.0,0.54,-2.4,15.41
2870.0,0.8,-2.69,15.76
2883.0,1.07,-2.89,16.1
2895.0,1.05,-2.8,15.84
2908.0,0.67,-2.61,15.35
2921.0,0.35,-2.52,14.88
2934.0,0.17,-2.38,14.39
2947.0,0.16,-2.22,13.89
2960.0,0.32,-2.1,13.55
2973.0,0.58,-1.91,13.15
2985.0,0.68,-1.53,12.5
2998.0,0.73,-1.19,12.03
3011.0,0.62,-1.31,12.37
3024.0,0.59,-1.8,12.97
3037.0,0.46,-2.39,13.5
3050.0,0.44,-2.93,14.21
3063.0,0.74,-3.23,14.35
3076.0,0.93,-3.11,13.81
3088.0,0.98,-2.87,13.16
3101.0,0.77,-2.54,12.2
3114.0,0.5,-2.3,11.35
3127.0,0.43,-2.28,10.76
3140.0,0.47,-2.59,11.12
3153.0,0.06,-3.08,11.5
3166.0,-0.34,-3.17,11.25
3178.0,-0.34,-2.67,10.24
3191.0,-0.09,-1.59,8.28
3204.0,-0.07,-0.25,5.78
3217.0,-0.37,0.54,3.87
3230.0,-0.74,-0.06,4.65
3243.0,-0.48,-1.79,7.59
3256.0,-0.24,-3.22,9.87
3268.0,-0.29,-3.78,10.22
3281.0,0.01,-3.38,8.98
3294.0,0.36,-2.2,7.12
3307.0,0.29,-1.15,5.19
3320.0,0.27,-1.19,4.81
3333.0,0.28,-1.84,6.33
3346.0,0.45,-2.21,7.31
3359.0,0.7,-2.05,7.09
3371.0,1.06,-1.37,5.98
3384.0,1.29,-0.64,4.77
3397.0,1.1,-0.22,4.07
3410.0,0.78,-0.04,4.1
3423.0,0.28,-0.02,4.17
3436.0,-0.06,-0.03,4.64
3449.0,-0.1,-0.25,5.39
3461.0,0.25,-0.39,6.15
3474.0,0.64,-0.23,6.09
3487.0,0.97,0.07,5.52
3500.0,1.03,0.21,5.0
3513.0,0.92,0.12,5.15
3526.0,0.81,-0.27,5.88
3538.0,0.82,-0.82,6.79
3551.0,0.88,-1.33,8.04
3564.0,1.22,-1.58,8.86
3577.0,1.64,-1.39,8.71
3590.0,1.78,-0.88,7.56
3603.0,1.37,-0.46,6.92
3616.0,0.58,-0.7,6.98
3628.0,-0.24,-1.43,8.31
3641.0,-0.38,-2.22,10.54
3654.0,0.2,-2.66,12.4
3667.0,1.32,-2.61,12.47
3680.0,2.3,-2.14,10.6
3693.0,1.88,-1.13,8.3
3706.0,0.27,0.17,6.68
3719.0,-1.63,0.37,6.7
3731.0,-1.68,-0.62,8.69
3744.0,-0.2,-2.08,12.14
3757.0,0.96,-3.1,14.45
3770.0,1.71,-3.45,15.05
3783.0,1.85,-2.89,14.48
3796.0,0.98,-1.67,12.69
3809.0,-0.15,-0.9,11.43
3821.0,-0.5,-0.81,11.9
3834.0,0.26,-1.37,13.03
3847.0,1.17,-1.98,14.06
3860.0,1.59,-2.23,14.45
3873.0,1.35,-2.17,14.29
3886.0,0.83,-2.01,13.86
3899.0,0.46,-1.92,13.81
3911.0,0.22,-1.88,13.77
3924.0,0.07,-1.78,13.65
3937.0,0.09,-1.68,13.51
3950.0,0.16,-1.66,13.53
3963.0,0.33,-1.71,13.7
3976.0,0.52,-1.9,13.85
3989.0,0.64,-2.1,14.06
4001.0,0.72,-2.25,14.25
4014.0,0.69,-2.22,14.18
4027.0,0.62,-2.13,13.99
4040.0,0.67,-2.16,13.86
4053.0,0.58,-2.36,14.0
4066.0,0.57,-2.56,13.99
4079.0,0.53,-2.48,13.49
4091.0,0.52,-2.21,12.63
4104.0,0.7,-1.87,11.58
4117.0,0.77,-1.67,10.82
4130.0,0.56,-1.89,10.91
4143.0,0.13,-2.33,11.41
4156.0,-0.62,-2.61,11.7
4169.0,-0.63,-2.86,11.18
4182.0,-0.56,-3.03,10.71
4194.0,-0.63,-3.28,10.57
4207.0,-0.49,-3.46,10.65
4220.0,-0.04,-3.42,10.16
4233.0,0.25,-3.13,9.4
4246.0,0.39,-2.65,8.45
4259.0,0.51,-1.95,7.46
4272.0,0.62,-1.4,6.66
4284.0,0.77,-1.06,6.14
4297.0,0.98,-0.84,5.79
4310.0,1.13,-0.65,5.44
4323.0,1.12,-0.71,5.33
4336.0,0.9,-1.01,5.86
4349.0,0.72,-1.38,6.39
4362.0,0.73,-1.69,6.85
4374.0,0.61,-1.88,7.23
4387.0,0.57,-1.75,7.26
4400.0,0.66,-1.3,6.55
4413.0,0.74,-0.71,5.61
4426.0,0.77,-0.26,4.86
4439.0,0.7,-0.02,4.29
4452.0,0.84,0.04,4.2
4464.0,0.86,-0.13,4.46
4477.0,0.97,-0.39,5.32
4490.0,1.06,-0.77,6.29
4503.0,1.19,-0.95,6.93
4516.0,1.28,-0.85,6.96
4529.0,1.18,-0.31,6.27
4542.0,1.15,0.24,5.03
4554.0,1.12,0.33,4.41
4567.0,1.18,-0.05,5.03
4580.0,1.55,-0.74,6.4
4593.0,2.11,-1.43,7.73
4606.0,2.55,-1.86,8.56
4619.0,2.84,-2.12,9.12
4632.0,2.63,-1.97,9.22
4644.0,1.03,-1.51,7.79
4657.0,0.03,-0.59,6.99
4670.0,-1.06,-0.13,7.15
4683.0,-1.76,-0.43,8.09
4696.0,-1.58,-1.29,9.82
4709.0,-0.66,-2.39,12.07
4722.0,0.49,-2.83,13.18
4735.0,0.85,-2.44,12.69
4747.0,0.24,-1.65,11.55
4760.0,-0.84,-1.23,11.25
4773.0,-1.42,-1.25,11.8
4786.0,-1.14,-1.6,12.47
4799.0,-0.22,-2.09,13.22
4812.0,0.71,-2.65,13.8
4825.0,1.41,-3.14,14.48
4837.0,1.49,-3.12,14.46
4850.0,0.64,-2.61,14.03
4863.0,0.03,-2.26,13.65
4876.0,-0.23,-2.32,14.02
4889.0,-0.07,-2.43,14.44
4902.0,0.14,-2.32,14.43
4915.0,0.3,-1.97,13.9
4927.0,0.32,-1.62,13.44
4940.0,0.24,-1.56,13.53
4953.0,0.13,-1.64,13.9
4966.0,0.14,-1.77,14.16
4979.0,0.3,-1.81,14.28
4992.0,0.33,-1.87,14.29
5005.0,0.42,-1.97,14.33
5017.0,0.49,-2.17,14.49
5030.0,0.6,-2.35,14.63
5043.0,0.64,-2.44,14.51
5056.0,0.51,-2.52,14.28
5069.0,0.5,-2.57,14.1
5082.0,0.62,-2.46,13.66
5095.0,0.76,-2.25,12.96
5108.0,0.69,-2.04,12.21
5120.0,0.51,-2.1,11.99
5133.0,0.33,-2.3,12.08
5146.0,0.27,-2.54,12.27
5159.0,0.35,-2.61,12.11
5172.0,0.33,-2.31,11.21
5185.0,0.28,-1.8,10.14
5198.0,0.33,-1.22,9.1
5210.0,0.32,-0.72,7.92
5223.0,0.34,-0.3,7.04
5236.0,0.13,-0.41,7.02
5249.0,-0.03,-0.98,7.7
5262.0,0.25,-1.61,8.49
5275.0,0.5,-2.05,8.52
5288.0,0.82,-2.06,8.17
5300.0,1.04,-1.75,7.45
5313.0,1.04,-1.48,6.75
5326.0,1.19,-1.33,6.56
5339.0,1.49,-1.16,6.07
5352.0,1.71,-0.88,5.58
5365.0,1.51,-0.56,5.03
5378.0,1.05,-0.42,4.79
5390.0,0.77,-0.56,5.11
5403.0,0.82,-0.78,5.45
5416.0,1.0,-0.75,5.5
5429.0,1.22,-0.44,5.21
5442.0,1.5,0.02,4.65
5455.0,1.7,0.42,4.13
5467.0,1.63,0.65,3.9
5480.0,1.39,0.64,4.2
5493.0,1.28,0.46,4.76
5506.0,1.15,0.41,4.97
5519.0,0.65,0.36,5.05
5532.0,0.27,0.1,5.66
5545.0,0.39,-0.35,6.57
5557.0,0.46,-1.04,7.36
5570.0,0.39,-1.28,7.76
5583.0,0.49,-1.28,7.72
5596.0,0.86,-1.03,7.43
5609.0,1.09,-0.63,7.28
5622.0,0.69,-0.47,7.15
5635.0,0.18,-0.59,7.63
5647.0,-0.51,-0.74,8.45
5660.0,-0.67,-1.26,10.06
5673.0,0.35,-1.76,11.75
5686.0,1.52,-1.86,12.84
5699.0,2.38,-1.66,12.98
5712.0,2.04,-1.08,12.39
5725.0,0.38,0.11,11.11
5737.0,-1.69,1.41,9.81
5750.0,-2.5,1.28,9.45
5763.0,-1.24,-0.03,11.06
5776.0,0.74,-1.62,13.57
5789.0,1.91,-2.81,15.56
5802.0,2.73,-3.58,16.64
5815.0,2.96,-3.5,16.91
5827.0,2.04,-2.24,15.32
5840.0,0.73,-0.6,13.06
5853.0,-0.63,0.62,11.43
5866.0,-1.2,0.54,11.33
5879.0,-0.35,-0.58,12.68
5892.0,0.8,-1.9,14.38
5905.0,1.69,-2.75,15.46
5917.0,1.91,-2.82,15.42
5930.0,1.4,-2.23,14.4
5943.0,0.68,-1.62,13.3
5956.0,0.52,-1.47,12.93
5969.0,0.41,-1.56,12.99
5982.0,0.63,-1.56,13.15
5995.0,0.79,-1.56,13.06
6007.0,0.97,-1.44,13.02
6020.0,0.99,-1.36,13.2
6033.0,0.84,-1.31,13.48
6046.0,0.44,-1.31,13.71
6059.0,-0.16,-1.5,13.92
6072.0,-0.49,-1.83,14.25
6085.0,-0.39,-2.11,14.21
6098.0,-0.06,-2.28,14.24
6110.0,0.57,-2.43,14.32
6123.0,0.98,-2.45,14.1
6136.0,0.99,-1.8,12.78
6149.0,0.44,-1.11,11.11
6162.0,-0.01,-1.0,10.67
6175.0,0.07,-1.71,11.11
6188.0,0.59,-2.43,11.96
6200.0,0.42,-3.24,12.45
6213.0,0.45,-3.08,11.76
6226.0,0.54,-2.24,10.01
6239.0,0.52,-1.14,7.98
6252.0,0.38,-0.03,5.99
6265.0,0.13,0.63,4.87
6278.0,-0.14,0.12,5.19
6290.0,0.14,-1.13,7.15
6303.0,0.74,-2.07,8.36
6316.0,1.17,-2.3,8.46
6329.0,1.54,-1.78,7.61
6342.0,1.29,-0.58,5.69
6355.0,0.71,0.6,3.69
6368.0,0.47,1.41,2.52
6380.0,0.31,1.29,2.62
6393.0,0.29,0.46,3.96
6406.0,0.56,-0.52,6.0
6419.0,0.88,-1.05,7.01
6432.0,1.34,-0.86,6.65
6445.0,1.66,-0.08,5.2
6458.0,1.65,0.82,3.68
6470.0,1.36,1.48,2.79
6483.0,0.97,1.61,2.95
6496.0,0.53,1.24,3.83
6509.0,0.33,0.93,4.65
6522.0,0.23,0.41,5.67
6535.0,0.35,-0.01,6.41
6547.0,0.44,-0.31,6.62
6560.0,0.28,-0.37,6.49
6573.0,0.51,0.06,5.94
6586.0,0.94,0.21,5.17
6599.0,0.99,0.18,5.0
6612.0,0.82,0.13,5.38
6625.0,0.66,-0.27,6.36
6637.0,0.82,-1.12,8.09
6650.0,0.76,-1.8,9.33
6663.0,0.17,-1.91,9.41
6676.0,-0.19,-1.51,9.27
6689.0,-0.19,-1.13,9.08
6702.0,0.03,-1.14,9.52
6715.0,0.04,-1.63,11.04
6727.0,-0.21,-2.38,13.06
6740.0,-0.37,-2.7,14.26
6753.0,-0.37,-2.5,14.05
6766.0,-0.35,-1.99,13.16
6779.0,-0.42,-1.45,12.23
6792.0,-0.24,-1.32,12.04
6805.0,0.38,-1.64,12.65
6818.0,0.91,-2.21,13.71
6830.0,1.39,-2.63,14.73
6843.0,1.45,-2.83,15.04
6856.0,1.24,-2.68,14.98
6869.0,1.02,-2.39,14.66
6882.0,0.48,-2.04,14.11
6895.0,0.28,-1.82,13.89
6908.0,0.51,-1.92,14.14
6920.0,0.9,-2.18,14.53
6933.0,1.11,-2.31,14.79
6946.0,0.97,-2.4,14.84
6959.0,0.89,-2.57,15.09
6972.0,0.89,-2.78,15.13
6985.0,0.94,-2.75,14.76
6998.0,0.87,-2.55,14.02
7010.0,0.81,-2.3,13.53
7023.0,0.71,-2.14,13.41
7036.0,0.64,-2.05,13.37
7049.0,0.59,-2.06,13.49
7062.0,0.69,-2.17,13.57
7075.0,0.88,-2.21,13.48
7088.0,0.94,-2.48,13.66
7100.0,1.06,-2.74,14.1
7113.0,1.03,-2.83,14.15
7126.0,0.77,-2.66,13.85
7139.0,0.37,-2.29,13.3
7152.0,-0.31,-1.76,12.22
7165.0,-0.49,-1.3,11.37
7178.0,-0.63,-1.0,10.57
7190.0,-0.53,-0.9,10.18
7203.0,-0.1,-1.05,10.04
7216.0,0.37,-1.33,10.07
7229.0,0.61,-1.55,10.2
7242.0,0.33,-1.57,10.0
7255.0,-0.16,-1.15,8.95
7268.0,-0.51,-0.59,7.4
7281.0,-0.07,-0.54,7.02
7293.0,0.56,-0.98,7.33
7306.0,1.26,-1.47,7.95
7319.0,1.78,-1.87,8.35
7332.0,2.15,-1.93,8.38
7345.0,2.15,-1.52,7.53
7358.0,1.63,-0.72,6.15
7371.0,1.17,0.1,4.86
7383.0,1.01,0.65,4.17
7396.0,0.82,0.28,4.18
7409.0,1.31,-0.42,5.45
7422.0,1.85,-0.99,6.44
7435.0,2.15,-1.1,6.6
7448.0,2.15,-0.82,6.25
7461.0,1.9,-0.35,5.56
7473.0,1.59,0.08,4.78
7486.0,1.09,0.49,3.91
7499.0,0.66,0.67,3.59
7512.0,0.83,0.47,4.29
7525.0,1.39,0.18,4.91
7538.0,1.82,0.07,5.2
7550.0,2.03,0.13,5.32
7563.0,1.99,0.13,5.4
7576.0,1.85,-0.0,5.59
7589.0,1.63,-0.37,6.2
7602.0,1.51,-0.59,6.43
7615.0,1.5,-0.59,6.48
7628.0,1.65,-0.57,6.54
7640.0,1.61,-0.4,6.81
7653.0,1.62,-0.28,7.12
7666.0,1.57,-0.2,7.14
7679.0,0.42,0.03,6.71
7692.0,-0.82,0.15,7.07
7705.0,-0.89,-0.37,8.23
7718.0,0.31,-1.55,10.15
7730.0,1.61,-2.25,11.53
7743.0,2.32,-2.37,11.68
7756.0,2.33,-1.87,11.09
7769.0,1.52,-1.2,10.51
7782.0,0.54,-0.75,10.51
7795.0,0.07,-0.82,11.04
7808.0,0.24,-1.17,11.92
7820.0,0.97,-1.71,12.89
7833.0,1.74,-1.94,13.59
7846.0,1.94,-1.77,13.66
7859.0,1.68,-1.33,13.42
7872.0,1.01,-0.96,13.39
7885.0,0.7,-1.02,13.92
7898.0,0.9,-1.44,14.61
7910.0,1.15,-1.89,15.15
7923.0,1.51,-2.2,15.5
7936.0,1.73,-2.24,15.62
7949.0,1.62,-2.07,15.49
7962.0,1.29,-1.81,15.41
7975.0,0.85,-1.63,15.43
7988.0,0.39,-1.54,15.56
8000.0,0.02,-1.44,15.48
8013.0,-0.3,-1.29,15.32
8026.0,-0.35,-1.23,15.14
8039.0,-0.15,-1.31,14.95
8052.0,0.04,-1.43,14.9
8065.0,0.19,-1.51,14.75
8078.0,0.3,-1.59,14.68
8090.0,0.28,-1.64,14.54
8103.0,-0.07,-1.83,14.45
8116.0,-0.53,-1.88,14.12
8129.0,-0.55,-1.88,13.72
8142.0,-0.23,-1.91,13.2
8155.0,0.02,-1.93,12.74
8168.0,0.04,-1.97,12.34
8181.0,-0.08,-2.27,12.54
8193.0,-0.26,-2.66,12.76
8206.0,-0.3,-2.85,12.61
8219.0,-0.2,-2.61,11.62
8232.0,0.07,-2.12,10.43
8245.0,0.26,-1.66,9.3
8258.0,0.39,-1.33,8.53
8271.0,0.48,-1.2,8.04
8283.0,0.44,-1.31,7.87
8296.0,0.48,-1.41,7.83
8309.0,0.62,-1.42,7.5
8322.0,0.88,-1.47,7.48
8335.0,1.07,-1.72,7.88
8348.0,1.26,-1.97,8.34
8361.0,1.55,-1.77,7.83
8373.0,1.77,-1.2,6.5
8386.0,1.71,-0.32,5.02
8399.0,1.2,0.49,3.71
8412.0,0.68,0.9,3.34
8425.0,0.36,0.74,3.95
8438.0,0.51,0.27,4.98
8451.0,0.82,-0.05,5.64
8463.0,1.1,0.07,5.54
8476.0,1.1,0.41,4.75
8489.0,0.95,0.64,4.32
8502.0,0.58,0.74,4.11
8515.0,0.35,0.74,4.24
8528.0,0.36,0.66,4.4
8540.0,0.65,0.55,4.91
8553.0,0.88,0.34,5.52
8566.0,0.75,0.17,5.88
8579.0,0.45,0.05,6.26
8592.0,0.35,-0.07,6.18
8605.0,0.2,-0.05,5.76
8618.0,0.2,-0.12,5.61
8630.0,0.57,-0.46,6.06
8643.0,1.07,-0.85,7.17
8656.0,1.4,-1.05,8.13
8669.0,1.31,-1.03,8.61
8682.0,1.14,-0.61,8.29
8695.0,0.55,-0.12,7.2
8708.0,-0.01,0.46,6.22
8720.0,-0.26,0.98,5.72
8733.0,0.0,1.05,6.32
8746.0,0.35,0.61,7.79
8759.0,0.73,-0.21,10.19
8772.0,0.81,-0.98,12.53
8785.0,0.49,-1.19,13.46
8798.0,-0.38,-0.78,12.92
8808.0,-4.6,-66.08,16.55
8819.0,-4.6,-66.08,16.55
8830.0,-4.6,-66.08,16.55
8841.0,0.0,-66.08,16.55
8851.0,0.0,-66.08,16.55
8862.0,0.0,-66.08,16.55
8873.0,0.0,-66.08,16.55
8884.0,0.0,-66.08,16.55
8894.0,0.0,-66.08,16.55
8905.0,0.0,-66.08,16.55
8916.0,0.0,-66.08,16.55
8927.0,0.0,-66.08,16.55
8940.0,0.0,0.0,0.0
8952.0,0.0,0.0,0.0
8965.0,0.0,0.0,0.0
8978.0,0.0,0.0,0.0
8991.0,0.0,0.0,0.0
9004.0,0.0,0.0,0.0
9017.0,0.0,0.0,0.0
9029.0,0.0,0.0,0.0
9042.0,0.0,0.0,0.0
9055.0,0.0,0.0,0.0
9068.0,0.0,0.0,0.0
9081.0,0.0,0.0,0.0
9094.0,0.0,0.0,0.0
9107.0,0.0,0.0,0.0
9119.0,0.0,0.0,0.0
9132.0,0.0,0.0,0.0
9145.0,0.0,0.0,0.0
9158.0,0.0,0.0,0.0
9171.0,0.0,0.0,0.0
9184.0,0.0,0.0,0.0
9196.0,0.0,0.0,0.0
9209.0,0.0,0.0,0.0
9222.0,0.0,0.0,0.0
9235.0,0.0,0.0,0.0
9248.0,0.0,0.0,0.0
9261.0,0.0,0.0,0.0
9273.0,0.0,0.0,0.0
9286.0,0.0,0.0,0.0
9299.0,0.0,0.0,0.0
9312.0,0.0,0.0,0.0
9325.0,0.0,0.0,0.0
9338.0,0.0,0.0,0.0
9350.0,0.0,0.0,0.0
9363.0,0.0,0.0,0.0
9376.0,0.0,0.0,0.0
9389.0,0.0,0.0,0.0
9402.0,0.0,0.0,0.0
9415.0,0.0,0.0,0.0
9427.0,0.0,0.0,0.0
9440.0,0.0,0.0,0.0
9453.0,0.0,0.0,0.0
9466.0,0.0,0.0,0.0
9479.0,0.0,0.0,0.0
9492.0,0.0,0.0,0.0
9504.0,0.0,0.0,0.0
9517.0,0.0,0.0,0.0
9530.0,0.0,0.0,0.0
9543.0,0.0,0.0,0.0
9556.0,0.0,0.0,0.0
9569.0,0.0,0.0,0.0
9582.0,0.0,0.0,0.0
9594.0,0.0,0.0,0.0
9607.0,0.0,0.0,0.0
9620.0,0.0,0.0,0.0
9633.0,0.0,0.0,0.0
9646.0,0.0,0.0,0.0
9659.0,0.0,0.0,0.0
9671.0,0.0,0.0,0.0
9684.0,0.0,0.0,0.0
9697.0,0.0,0.0,0.0
9710.0,0.0,0.0,0.0
9723.0,0.0,0.0,0.0
9736.0,0.0,0.0,0.0
9748.0,0.0,0.0,0.0
9761.0,0.0,0.0,0.0
9774.0,0.0,0.0,0.0
9787.0,0.0,0.0,0.0
9800.0,0.0,0.0,0.0
9813.0,0.0,0.0,0.0
9825.0,0.0,0.0,0.0
9838.0,0.0,0.0,0.0
9851.0,0.0,0.0,0.0
9864.0,0.0,0.0,0.0
9877.0,0.0,0.0,0.0
9890.0,0.0,0.0,0.0
9902.0,0.0,0.0,0.0
9915.0,0.0,0.0,0.0
9928.0,0.0,0.0,0.0
9941.0,0.0,0.0,0.0
9954.0,0.0,0.0,0.0
9967.0,0.0,0.0,0.0
9979.0,0.0,0.0,0.0
9992.0,0.0,0.0,0.0
10005.0,0.0,0.0,0.0
10018.0,0.0,0.0,0.0
10031.0,0.0,0.0,0.0
10044.0,0.0,0.0,0.0
10057.0,0.0,0.0,0.0
10069.0,0.0,0.0,0.0
10082.0,0.0,0.0,0.0
10095.0,0.0,0.0,0.0
10108.0,0.0,0.0,0.0
10121.0,0.0,0.0,0.0
10134.0,0.0,0.0,0.0
10146.0,0.0,0.0,0.0
10159.0,0.0,0.0,0.0
10172.0,0.0,0.0,0.0
10185.0,0.0,0.0,0.0
10198.0,0.0,0.0,0.0
10211.0,0.0,0.0,0.0
10223.0,0.0,0.0,0.0
10236.0,0.0,0.0,0.0
10249.0,0.0,0.0,0.0
10262.0,0.0,0.0,0.0
10275.0,0.0,0.0,0.0
10288.0,0.0,0.0,0.0
10300.0,0.0,0.0,0.0
10313.0,0.0,0.0,0.0
10326.0,0.0,0.0,0.0
10339.0,0.0,0.0,0.0
10352.0,0.0,0.0,0.0
10365.0,0.0,0.0,0.0
10377.0,0.0,0.0,0.0
10390.0,0.0,0.0,0.0
10403.0,0.0,0.0,0.0
10416.0,0.0,0.0,0.0
10429.0,0.0,0.0,0.0
10442.0,0.0,0.0,0.0
10454.0,0.0,0.0,0.0
10467.0,0.0,0.0,0.0
10480.0,0.0,0.0,0.0
10493.0,0.0,0.0,0.0
10506.0,0.0,0.0,0.0
10519.0,0.0,0.0,0.0
10532.0,0.0,0.0,0.0
10544.0,0.0,0.0,0.0
10557.0,0.0,0.0,0.0
10570.0,0.0,0.0,0.0
10583.0,0.0,0.0,0.0
10596.0,0.0,0.0,0.0
10609.0,0.0,0.0,0.0
10621.0,0.0,0.0,0.0
10634.0,0.0,0.0,0.0
10647.0,0.0,0.0,0.0
10660.0,0.0,0.0,0.0
10673.0,0.0,0.0,0.0
10686.0,0.0,0.0,0.0
10698.0,0.0,0.0,0.0
10711.0,0.0,0.0,0.0
10724.0,0.0,0.0,0.0
10737.0,0.0,0.0,0.0
10750.0,0.0,0.0,0.0
10763.0,0.0,0.0,0.0
10775.0,0.0,0.0,0.0
10788.0,0.0,0.0,0.0
10801.0,0.0,0.0,0.0
10814.0,0.0,0.0,0.0
10827.0,0.0,0.0,0.0
10840.0,0.0,0.0,0.0
10852.0,0.0,0.0,0.0
10865.0,0.0,0.0,0.0
10878.0,0.0,0.0,0.0
10891.0,0.0,0.0,0.0
10904.0,0.0,0.0,0.0
10917.0,0.0,0.0,0.0
10930.0,0.0,0.0,0.0
10942.0,0.0,0.0,0.0
10955.0,0.0,0.0,0.0
10968.0,0.0,0.0,0.0
10981.0,0.0,0.0,0.0
10994.0,0.0,0.0,0.0
11007.0,0.0,0.0,0.0
11019.0,0.0,0.0,0.0
11032.0,0.0,0.0,0.0
11045.0,0.0,0.0,0.0
11058.0,0.0,0.0,0.0
11071.0,0.0,0.0,0.0
11084.0,0.0,0.0,0.0
11096.0,0.0,0.0,0.0
11109.0,0.0,0.0,0.0
11122.0,0.0,0.0,0.0
11135.0,0.0,0.0,0.0
11148.0,0.0,0.0,0.0
11161.0,0.0,0.0,0.0
11173.0,0.0,0.0,0.0
11186.0,0.0,0.0,0.0
11199.0,0.0,0.0,0.0
11212.0,0.0,0.0,0.0
11225.0,0.0,0.0,0.0
11238.0,0.0,0.0,0.0
11250.0,0.0,0.0,0.0
11263.0,0.0,0.0,0.0
11276.0,0.0,0.0,0.0
11289.0,0.0,0.0,0.0
11302.0,0.0,0.0,0.0
11315.0,0.0,0.0,0.0
11327.0,0.0,0.0,0.0
11340.0,0.0,0.0,0.0
11353.0,0.0,0.0,0.0
11366.0,0.0,0.0,0.0
11379.0,0.0,0.0,0.0
11392.0,0.0,0.0,0.0
11405.0,0.0,0.0,0.0
11417.0,0.0,0.0,0.0
11430.0,0.0,0.0,0.0
11443.0,0.0,0.0,0.0
11456.0,0.0,0.0,0.0
11469.0,0.0,0.0,0.0
11482.0,0.0,0.0,0.0
11494.0,0.0,0.0,0.0
11507.0,0.0,0.0,0.0
11520.0,0.0,0.0,0.0
11533.0,0.0,0.0,0.0
11546.0,0.0,0.0,0.0
11559.0,0.0,0.0,0.0
11571.0,0.0,0.0,0.0
11584.0,0.0,0.0,0.0
11597.0,0.0,0.0,0.0
11610.0,0.0,0.0,0.0
11623.0,0.0,0.0,0.0
11636.0,0.0,0.0,0.0
11648.0,0.0,0.0,0.0
11661.0,0.0,0.0,0.0
11674.0,0.0,0.0,0.0
11687.0,0.0,0.0,0.0
11700.0,0.0,0.0,0.0
11713.0,0.0,0.0,0.0
11725.0,0.0,0.0,0.0
11738.0,0.0,0.0,0.0
11751.0,0.0,0.0,0.0
11764.0,0.0,0.0,0.0
11777.0,0.0,0.0,0.0
11790.0,0.0,0.0,0.0
11803.0,0.0,0.0,0.0
11815.0,0.0,0.0,0.0
11828.0,0.0,0.0,0.0
11841.0,0.0,0.0,0.0
11854.0,0.0,0.0,0.0
11867.0,0.0,0.0,0.0
11880.0,0.0,0.0,0.0
11892.0,0.0,0.0,0.0
11905.0,0.0,0.0,0.0
11918.0,0.0,0.0,0.0
11931.0,0.0,0.0,0.0
11944.0,0.0,0.0,0.0
11957.0,0.0,0.0,0.0
11969.0,0.0,0.0,0.0
11982.0,0.0,0.0,0.0
11995.0,0.0,0.0,0.0
12008.0,0.0,0.0,0.0
12021.0,0.0,0.0,0.0
12034.0,0.0,0.0,0.0
12046.0,0.0,0.0,0.0
12059.0,0.0,0.0,0.0
12072.0,0.0,0.0,0.0
12085.0,0.0,0.0,0.0
12098.0,0.0,0.0,0.0
12111.0,0.0,0.0,0.0
12123.0,0.0,0.0,0.0
12136.0,0.0,0.0,0.0
12149.0,0.0,0.0,0.0
12162.0,0.0,0.0,0.0
12175.0,0.0,0.0,0.0
12188.0,0.0,0.0,0.0
12200.0,0.0,0.0,0.0
12213.0,0.0,0.0,0.0
12226.0,0.0,0.0,0.0
12239.0,0.0,0.0,0.0
12252.0,0.0,0.0,0.0
12265.0,0.0,0.0,0.0
12278.0,0.0,0.0,0.0
12290.0,0.0,0.0,0.0
12303.0,0.0,0.0,0.0
12316.0,0.0,0.0,0.0
12329.0,0.0,0.0,0.0
12342.0,0.0,0.0,0.0
12355.0,0.0,0.0,0.0
12367.0,0.0,0.0,0.0
12380.0,0.0,0.0,0.0
12393.0,0.0,0.0,0.0
12406.0,0.0,0.0,0.0
12419.0,0.0,0.0,0.0
12432.0,0.0,0.0,0.0
12444.0,0.0,0.0,0.0
12457.0,0.0,0.0,0.0
12470.0,0.0,0.0,0.0
12483.0,0.0,0.0,0.0
12496.0,0.0,0.0,0.0
12509.0,0.0,0.0,0.0
12521.0,0.0,0.0,0.0
12534.0,0.0,0.0,0.0
12547.0,0.0,0.0,0.0
12560.0,0.0,0.0,0.0
12573.0,0.0,0.0,0.0
12586.0,0.0,0.0,0.0
12598.0,0.0,0.0,0.0
12611.0,0.0,0.0,0.0
12624.0,0.0,0.0,0.0
12637.0,0.0,0.0,0.0
12650.0,0.0,0.0,0.0
12663.0,0.0,0.0,0.0
12676.0,0.0,0.0,0.0
12688.0,0.0,0.0,0.0
12701.0,0.0,0.0,0.0
12714.0,0.0,0.0,0.0
12727.0,0.0,0.0,0.0
12740.0,0.0,0.0,0.0
12753.0,0.0,0.0,0.0
12765.0,0.0,0.0,0.0
12778.0,0.0,0.0,0.0
12791.0,0.0,0.0,0.0
12804.0,0.0,0.0,0.0
12817.0,0.0,0.0,0.0
