timestamp,accX,accY,accZ
2.0,0.92,-0.13,10.56
15.0,0.73,-0.32,8.46
28.0,0.79,-0.82,10.55
41.0,0.8,-1.61,11.68
54.0,1.1,-2.21,11.76
66.0,1.39,-2.37,11.04
79.0,1.44,-2.07,10.03
92.0,1.3,-1.71,8.94
105.0,1.16,-1.32,7.9
118.0,0.87,-1.14,7.12
131.0,0.66,-1.01,6.56
144.0,0.69,-0.84,6.2
157.0,0.86,-0.68,5.9
169.0,0.87,-0.56,5.54
182.0,0.75,-0.42,5.31
195.0,0.48,-0.4,5.16
208.0,0.15,-0.41,5.01
221.0,-0.0,-0.36,4.92
234.0,-0.0,-0.35,4.82
247.0,0.19,-0.36,4.68
259.0,0.34,-0.33,4.67
272.0,0.42,-0.21,4.19
285.0,0.39,0.08,3.67
298.0,0.24,0.32,3.43
311.0,0.13,0.38,3.43
324.0,-0.01,0.33,3.46
336.0,-0.06,0.2,3.64
349.0,-0.15,0.04,3.84
362.0,-0.07,-0.2,4.24
375.0,0.04,-0.41,4.82
388.0,0.26,-0.64,5.41
401.0,0.58,-0.67,5.7
414.0,0.72,-0.46,5.66
427.0,0.94,-0.38,6.11
439.0,1.38,-0.75,7.2
452.0,1.73,-1.33,8.32
465.0,1.93,-1.8,8.95
478.0,1.85,-1.96,9.07
491.0,1.73,-1.72,8.97
504.0,1.18,-2.06,9.1
517.0,1.06,-2.42,9.7
529.0,1.18,-2.71,10.32
542.0,1.32,-3.05,11.28
555.0,1.34,-3.45,12.81
568.0,1.29,-3.77,13.78
581.0,1.32,-3.88,14.05
594.0,1.21,-4.05,14.4
607.0,1.19,-4.27,15.04
619.0,1.19,-4.4,15.65
632.0,1.18,-4.21,15.89
645.0,0.94,-3.89,15.94
658.0,0.62,-3.62,15.94
671.0,0.31,-3.34,15.76
684.0,-0.17,-3.1,15.36
697.0,-0.36,-2.77,14.94
709.0,-0.57,-2.55,14.52
722.0,-0.34,-2.31,14.42
735.0,-0.18,-2.45,14.84
748.0,-0.08,-2.91,15.47
761.0,-0.06,-3.32,15.94
774.0,-0.01,-3.46,15.9
787.0,0.08,-3.36,15.37
800.0,0.38,-3.15,14.82
812.0,0.89,-3.01,14.81
825.0,1.25,-3.04,14.93
838.0,1.4,-3.14,15.03
851.0,1.59,-3.38,15.56
864.0,1.72,-3.72,15.91
877.0,1.84,-3.88,15.56
890.0,1.89,-3.64,14.56
902.0,1.92,-3.23,13.14
915.0,2.0,-2.86,11.72
928.0,1.91,-2.5,10.37
941.0,1.78,-2.05,9.15
954.0,1.8,-1.62,8.42
967.0,1.92,-1.21,7.77
980.0,1.83,-1.23,7.51
992.0,1.35,-1.6,7.69
1005.0,0.55,-2.18,7.8
1018.0,-0.26,-2.58,7.74
1031.0,-0.72,-2.57,7.19
1044.0,-0.7,-2.06,6.08
1057.0,-0.37,-1.34,4.98
1070.0,-0.04,-0.62,4.32
1082.0,0.2,-0.19,4.07
1095.0,0.3,0.07,3.9
1108.0,0.28,0.26,3.94
1121.0,0.33,0.46,3.86
1134.0,0.48,0.59,3.88
1147.0,0.63,0.75,3.97
1160.0,0.9,0.88,3.79
1172.0,1.16,1.01,3.44
1185.0,1.24,0.98,3.31
1198.0,1.1,0.68,3.66
1211.0,0.76,0.28,4.21
1224.0,0.32,0.05,4.61
1237.0,-0.17,-0.06,4.9
1249.0,-0.42,-0.11,5.2
1262.0,-0.12,-0.06,5.57
1275.0,0.68,0.06,6.16
1288.0,1.39,0.19,6.82
1301.0,1.89,0.21,7.44
1314.0,2.1,0.26,7.62
1327.0,1.89,0.22,7.74
1339.0,1.4,-0.21,8.28
1352.0,0.76,-0.8,8.41
1365.0,0.08,-1.28,8.17
1378.0,-0.44,-1.19,7.59
1391.0,-0.07,-0.71,7.55
1404.0,0.75,-0.39,8.18
1417.0,1.61,-0.47,9.19
1429.0,2.31,-0.68,10.1
1442.0,1.46,-1.7,10.49
1455.0,0.43,-2.57,10.71
1468.0,-0.22,-2.74,10.97
1481.0,0.18,-2.5,11.54
1494.0,1.1,-2.22,12.29
1507.0,1.94,-2.14,13.09
1519.0,2.24,-2.37,13.49
1532.0,1.83,-2.62,13.45
1545.0,1.15,-2.66,13.1
1558.0,0.32,-2.57,12.72
1571.0,0.06,-2.62,13.04
1584.0,0.37,-2.74,13.91
1597.0,0.96,-2.83,14.76
1609.0,1.29,-2.8,14.97
1622.0,1.1,-2.74,14.68
1635.0,0.59,-2.6,13.95
1648.0,0.11,-2.3,13.32
1661.0,0.02,-2.14,13.24
1674.0,0.35,-2.04,13.42
1687.0,0.76,-1.9,13.67
1700.0,0.8,-2.16,13.95
1712.0,0.86,-2.67,14.75
1725.0,0.89,-3.05,15.16
1738.0,0.85,-3.09,15.06
1751.0,0.9,-2.92,14.74
1764.0,0.98,-2.79,14.39
1777.0,0.9,-2.7,14.1
1790.0,0.7,-2.69,13.9
1802.0,0.39,-2.95,14.07
1815.0,0.34,-3.27,14.29
1828.0,0.5,-3.3,14.06
1841.0,0.79,-3.1,13.43
1854.0,1.07,-2.78,12.59
1867.0,1.29,-2.43,11.57
1880.0,1.4,-2.17,10.85
1892.0,1.26,-1.98,10.42
1905.0,1.1,-2.05,10.55
1918.0,0.87,-2.63,11.35
1931.0,0.83,-3.18,11.93
1944.0,0.9,-3.48,11.88
1957.0,0.95,-3.32,11.0
1970.0,0.82,-2.83,9.84
1982.0,0.62,-2.38,8.81
1995.0,0.44,-2.0,7.87
2008.0,0.25,-1.6,7.0
2021.0,0.15,-1.16,6.25
2034.0,0.05,-0.76,5.72
2047.0,0.02,-0.38,5.38
2060.0,0.09,-0.02,4.95
2072.0,0.14,0.25,4.67
2085.0,0.18,0.43,4.42
2098.0,0.23,0.64,4.13
2111.0,0.26,0.84,3.79
2124.0,0.4,0.98,3.62
2137.0,0.71,1.05,3.76
2149.0,0.94,0.97,4.05
2162.0,0.9,0.93,4.1
2175.0,0.71,0.93,4.01
2188.0,0.49,0.86,3.99
2201.0,0.38,0.76,4.1
2214.0,0.35,0.62,4.5
2226.0,0.39,0.34,5.41
2239.0,0.37,-0.11,6.42
2252.0,0.43,-0.35,7.01
2265.0,0.5,-0.36,7.07
2278.0,0.62,-0.18,6.76
2291.0,1.04,0.0,6.62
2304.0,1.58,0.09,7.14
2316.0,2.02,0.01,7.86
2329.0,2.03,-0.17,7.99
2342.0,1.44,-0.46,7.66
2355.0,0.55,-0.76,7.21
2368.0,-0.03,-0.65,6.79
2381.0,0.22,-0.33,6.97
2394.0,1.27,-0.28,8.13
2406.0,2.36,-0.77,9.86
2419.0,2.6,-1.41,11.02
2432.0,2.03,-1.77,11.23
2445.0,1.16,-1.77,10.75
2458.0,0.23,-2.01,10.32
2471.0,0.1,-2.25,10.66
2484.0,0.42,-2.42,11.39
2496.0,0.82,-2.64,12.65
2509.0,0.92,-2.88,13.54
2522.0,0.56,-3.21,13.77
2535.0,-0.05,-3.45,13.59
2548.0,-0.66,-3.38,12.98
2561.0,-0.77,-3.21,12.84
2574.0,-0.32,-2.91,13.05
2587.0,0.41,-2.64,13.25
2599.0,0.86,-2.56,13.61
2612.0,0.94,-2.55,13.58
2625.0,0.75,-2.56,13.45
2638.0,0.42,-2.69,13.34
2651.0,0.19,-2.75,13.32
2664.0,0.2,-2.66,13.23
2677.0,0.54,-2.46,13.32
2689.0,0.79,-2.35,13.25
2702.0,0.95,-2.32,13.4
2715.0,0.86,-2.49,13.6
2728.0,0.99,-2.78,14.13
2741.0,1.2,-3.05,14.75
2754.0,1.19,-3.27,15.06
2767.0,1.03,-3.25,15.0
2779.0,1.04,-3.15,14.76
2792.0,1.1,-3.01,14.47
2805.0,1.14,-2.88,14.21
2818.0,1.23,-2.8,14.13
2831.0,1.32,-2.68,14.01
2844.0,1.41,-2.5,13.59
2857.0,1.45,-2.27,12.84
2869.0,1.41,-2.05,11.93
2882.0,1.44,-1.86,11.12
2895.0,1.75,-1.77,10.74
2908.0,2.17,-1.98,10.98
2921.0,2.38,-2.24,11.19
2934.0,2.21,-2.46,11.02
2947.0,1.86,-2.46,10.5
2959.0,1.36,-2.31,9.74
2972.0,0.89,-2.2,8.89
2985.0,0.67,-2.13,8.39
2998.0,0.83,-2.02,8.1
3011.0,1.05,-1.8,7.8
3024.0,1.23,-1.56,7.47
3037.0,1.21,-1.46,7.31
3049.0,1.05,-1.41,7.41
3062.0,0.96,-1.43,7.55
3075.0,0.87,-1.27,7.35
3088.0,0.81,-0.95,6.64
3101.0,0.67,-0.5,5.64
3114.0,0.6,0.07,4.65
3127.0,0.57,0.54,3.92
3139.0,0.5,0.84,3.41
3152.0,0.37,0.86,3.32
3165.0,0.21,0.75,3.46
3178.0,0.2,0.57,3.9
3191.0,0.2,0.45,4.34
3204.0,0.07,0.46,4.47
3216.0,-0.02,0.55,4.42
3229.0,-0.04,0.77,4.18
3242.0,0.09,0.99,4.01
3255.0,0.29,1.03,4.42
3268.0,0.61,0.78,5.18
3281.0,1.06,0.36,5.96
3294.0,1.29,-0.15,6.91
3306.0,1.33,-0.79,7.72
3319.0,1.12,-1.02,8.03
3332.0,0.84,-0.92,7.84
3345.0,0.88,-0.83,7.96
3358.0,1.17,-0.82,8.14
3371.0,1.52,-0.89,8.17
3384.0,1.86,-0.98,8.46
3396.0,2.04,-1.03,8.95
3409.0,2.32,-1.14,9.34
3422.0,2.14,-1.39,9.62
3435.0,1.51,-1.94,9.91
3448.0,0.99,-2.19,10.26
3461.0,1.31,-2.48,11.25
3474.0,2.1,-2.64,12.47
3486.0,3.05,-2.37,12.98
3499.0,2.67,-1.98,12.42
3512.0,1.47,-1.81,11.65
3525.0,0.71,-1.87,11.85
3538.0,0.86,-2.21,12.94
3551.0,1.28,-2.6,14.36
3564.0,1.66,-2.82,15.11
3576.0,2.09,-2.63,15.06
3589.0,2.2,-2.23,14.52
3602.0,1.88,-1.95,14.01
3615.0,1.37,-2.12,13.93
3628.0,0.88,-2.41,14.18
3641.0,0.45,-2.73,14.33
3654.0,0.1,-2.87,14.23
3666.0,-0.17,-2.9,13.96
3679.0,-0.31,-2.86,13.83
3692.0,-0.1,-2.82,13.95
3705.0,0.2,-2.91,14.34
3718.0,0.36,-3.0,14.44
3731.0,0.45,-2.9,14.21
3744.0,0.51,-2.68,13.69
3756.0,0.76,-2.41,13.54
3769.0,1.08,-2.25,13.74
3782.0,1.2,-2.22,14.01
3795.0,1.2,-2.44,14.34
3808.0,1.03,-2.81,14.43
3821.0,0.74,-3.06,14.36
3834.0,0.43,-2.96,13.49
3846.0,0.2,-2.66,12.53
3859.0,0.25,-2.41,12.07
3872.0,0.43,-2.23,11.71
3885.0,0.48,-1.88,11.1
3898.0,0.52,-1.41,10.25
3911.0,0.57,-1.01,9.25
3924.0,0.81,-0.86,8.88
3936.0,1.19,-1.04,9.82
3949.0,1.33,-1.65,10.54
3962.0,0.92,-2.12,10.44
3975.0,0.53,-2.23,9.91
3988.0,0.34,-1.97,8.96
4001.0,0.18,-1.5,7.66
4014.0,0.13,-1.07,6.47
4026.0,0.22,-0.68,5.71
4039.0,0.51,-0.34,5.36
4052.0,0.67,-0.06,5.24
4065.0,0.68,0.18,5.09
4078.0,0.57,0.48,4.76
4091.0,0.39,0.73,4.17
4104.0,0.18,0.94,3.48
4116.0,-0.03,0.97,3.11
4129.0,-0.27,0.85,3.06
4142.0,-0.53,0.75,3.05
4155.0,-0.55,0.7,3.2
4168.0,-0.4,0.68,3.31
4181.0,-0.19,0.76,3.82
4194.0,-0.04,0.86,4.12
4206.0,0.04,0.97,4.49
4219.0,0.29,1.0,5.03
4232.0,0.78,0.88,5.93
4245.0,1.25,0.71,6.8
4258.0,1.54,0.51,7.53
4271.0,1.69,0.23,7.86
4283.0,1.72,-0.01,8.04
4296.0,1.53,-0.31,8.16
4309.0,1.19,-0.77,8.23
4322.0,0.66,-0.98,8.32
4335.0,0.19,-0.83,8.03
4348.0,0.03,-0.45,7.71
4361.0,0.69,-0.27,7.84
4373.0,1.73,-0.56,8.9
4386.0,2.49,-1.17,10.5
4399.0,2.59,-1.79,11.52
4412.0,1.8,-1.96,11.38
4425.0,0.75,-1.94,10.69
4438.0,0.01,-1.64,9.75
4451.0,-0.0,-1.58,9.29
4463.0,0.56,-1.96,9.8
4476.0,1.19,-2.28,11.02
4489.0,1.28,-2.5,11.78
4502.0,0.85,-2.8,12.08
4515.0,0.31,-3.05,11.97
4528.0,-0.05,-2.96,11.72
4541.0,0.21,-2.78,11.85
4554.0,0.98,-2.65,12.58
4566.0,1.77,-2.62,13.08
4579.0,2.18,-2.67,13.35
4592.0,2.02,-2.67,13.31
4605.0,1.72,-2.55,13.24
4618.0,1.68,-2.55,13.37
4631.0,1.81,-2.63,13.7
4644.0,1.77,-2.79,13.8
4656.0,1.61,-2.86,13.74
4669.0,1.57,-2.92,13.92
4682.0,1.53,-2.98,14.07
4695.0,1.33,-3.23,14.4
4708.0,1.17,-3.5,14.68
4721.0,1.03,-3.6,14.73
4734.0,0.96,-3.68,14.95
4746.0,1.16,-3.78,15.08
4759.0,1.34,-3.72,15.09
4772.0,1.38,-3.55,14.77
4785.0,1.35,-3.49,14.75
4798.0,1.16,-3.57,14.92
4811.0,1.05,-3.67,14.83
4824.0,0.96,-3.57,14.43
4836.0,1.28,-3.45,14.13
4849.0,1.64,-3.24,13.84
4862.0,1.91,-3.09,13.37
4875.0,1.82,-2.94,12.7
4888.0,1.44,-2.64,11.65
4901.0,0.95,-2.26,10.49
4914.0,0.35,-1.87,9.52
4926.0,0.01,-1.58,8.91
4939.0,0.23,-1.45,8.94
4952.0,0.66,-1.33,9.05
4965.0,0.87,-1.18,9.05
4978.0,0.73,-0.91,8.53
4991.0,0.44,-0.6,7.67
5004.0,0.11,-0.34,7.01
5016.0,-0.21,-0.23,7.05
5029.0,-0.34,-0.33,7.18
5042.0,-0.28,-0.52,7.45
5055.0,-0.11,-0.56,7.36
5068.0,0.08,-0.44,7.01
5081.0,0.05,-0.06,6.34
5094.0,0.35,0.57,5.19
5106.0,0.08,1.08,5.04
5119.0,-0.05,1.22,4.83
5132.0,-0.01,1.11,4.8
5145.0,-0.11,0.97,5.04
5158.0,-0.22,0.82,5.27
5171.0,-0.18,0.76,5.07
5184.0,0.04,0.87,4.85
5196.0,0.49,1.03,4.63
5209.0,0.78,1.05,4.84
5222.0,0.87,0.88,5.31
5235.0,0.72,0.77,5.57
5248.0,0.43,0.82,5.46
5261.0,0.24,0.94,5.22
5273.0,0.33,1.0,5.39
5286.0,0.75,0.97,6.0
5299.0,1.18,0.91,6.64
5312.0,1.59,0.71,7.33
5325.0,1.98,0.25,8.41
5338.0,1.85,-0.36,9.36
5351.0,1.43,-0.76,9.42
5363.0,0.67,-0.7,8.31
5376.0,0.03,-0.38,6.9
5389.0,0.31,-0.02,6.2
5402.0,1.11,-0.02,7.18
5415.0,1.78,-0.27,8.73
5428.0,1.95,-0.68,9.89
5441.0,1.72,-0.99,10.16
5453.0,1.03,-1.16,9.73
5466.0,0.41,-1.35,9.17
5479.0,0.07,-1.58,9.32
5492.0,0.07,-1.54,9.6
5505.0,0.44,-1.37,9.69
5518.0,0.82,-1.23,10.07
5531.0,1.26,-1.34,10.5
5543.0,1.34,-1.49,10.62
5556.0,0.97,-1.56,10.82
5569.0,0.76,-1.65,11.27
5582.0,1.02,-1.73,11.96
5595.0,1.11,-1.97,12.53
5608.0,1.26,-2.43,13.19
5621.0,1.44,-2.67,13.41
5633.0,1.37,-2.65,13.06
5646.0,1.12,-2.44,12.49
5659.0,0.86,-2.27,12.05
5672.0,1.02,-2.32,12.28
5685.0,1.44,-2.54,13.1
5698.0,1.77,-2.77,13.98
5711.0,1.79,-2.79,14.43
5723.0,1.64,-2.82,14.61
5736.0,1.65,-2.97,14.98
5749.0,1.66,-3.29,15.39
5762.0,1.66,-3.63,15.8
5775.0,1.66,-3.93,16.16
5788.0,1.56,-3.93,16.1
5801.0,1.52,-3.79,15.67
5813.0,1.6,-3.62,15.17
5826.0,1.77,-3.45,14.74
5839.0,2.06,-3.34,14.59
5852.0,2.12,-3.31,14.42
5865.0,1.86,-3.22,14.15
5878.0,1.71,-2.99,13.49
5891.0,1.67,-2.63,12.54
5903.0,1.72,-2.24,11.64
5916.0,1.72,-1.91,11.1
5929.0,1.85,-1.57,10.6
5942.0,1.82,-1.25,10.22
5955.0,1.71,-1.15,10.3
5968.0,1.73,-1.34,10.82
5981.0,1.71,-1.88,11.83
5993.0,1.63,-2.6,12.39
6006.0,1.42,-2.86,12.13
6019.0,1.35,-2.54,11.15
6032.0,1.32,-1.94,9.89
6045.0,1.12,-1.31,8.69
6058.0,0.83,-0.75,7.74
6071.0,0.88,-0.26,7.11
6083.0,1.28,0.12,6.88
6096.0,1.61,0.37,6.78
6109.0,1.61,0.45,6.68
6122.0,1.35,0.39,6.62
6135.0,0.96,0.24,6.42
6148.0,0.68,0.08,6.28
6160.0,0.57,-0.04,6.16
6173.0,0.47,-0.08,5.9
6186.0,0.35,-0.02,5.61
6199.0,0.22,0.05,5.26
6212.0,0.09,0.09,4.84
6225.0,0.12,0.06,4.53
6238.0,0.21,0.06,4.48
6250.0,0.39,0.06,4.58
6263.0,0.44,0.01,4.72
6276.0,0.29,0.07,4.68
6289.0,-0.06,0.22,4.42
6302.0,-0.39,0.36,4.24
6315.0,-0.53,0.52,4.17
6327.0,-0.4,0.76,4.23
6340.0,-0.07,0.97,4.49
6353.0,0.35,1.14,5.11
6366.0,0.86,1.12,5.96
6379.0,1.47,0.88,7.06
6392.0,2.15,0.48,8.23
6405.0,2.7,-0.09,9.52
6417.0,2.73,-0.6,10.42
6430.0,2.28,-0.77,10.3
6443.0,1.54,-0.62,9.41
6456.0,0.57,-0.42,8.23
6469.0,-0.36,-0.26,7.15
6482.0,-0.11,-0.38,6.97
6495.0,1.0,-0.74,8.2
6507.0,1.94,-1.18,9.9
6520.0,2.29,-1.67,11.22
6533.0,2.02,-2.07,11.86
6546.0,1.23,-2.31,11.68
6559.0,0.29,-2.28,11.03
6572.0,0.07,-2.16,10.48
6585.0,0.4,-1.92,10.38
6597.0,0.92,-1.75,10.85
6610.0,0.92,-1.92,11.49
6623.0,0.66,-2.1,12.03
6636.0,0.42,-2.12,11.92
6649.0,0.1,-1.93,11.43
6662.0,-0.13,-1.87,11.39
6675.0,-0.06,-2.17,11.7
6688.0,0.24,-2.62,12.28
6700.0,0.33,-2.93,12.72
6713.0,0.37,-3.05,12.89
6726.0,0.33,-3.01,12.9
6739.0,0.23,-2.84,12.54
6752.0,-0.11,-2.7,11.91
6765.0,-0.4,-2.65,11.32
6778.0,-0.38,-2.6,11.12
6790.0,-0.19,-2.69,11.69
6803.0,0.18,-2.89,12.61
6816.0,0.48,-3.25,13.71
6829.0,0.88,-3.4,14.54
6842.0,1.03,-3.61,14.93
6855.0,0.91,-3.93,15.14
6868.0,0.76,-4.22,15.26
6880.0,0.78,-4.3,15.3
6893.0,0.89,-4.15,15.19
6906.0,1.06,-3.8,15.05
6919.0,1.22,-3.54,14.82
6932.0,1.32,-3.46,14.63
6945.0,1.29,-3.45,14.34
6958.0,1.15,-3.34,13.83
6970.0,1.15,-3.1,13.68
6983.0,1.3,-3.12,14.1
6996.0,1.58,-3.17,14.16
7009.0,1.61,-3.05,13.6
7022.0,1.52,-2.86,12.78
7035.0,1.44,-2.71,12.08
7048.0,1.4,-2.56,11.42
7060.0,1.38,-2.39,10.89
7073.0,1.18,-2.21,10.38
7086.0,0.69,-2.03,9.75
7099.0,0.42,-1.79,9.17
7112.0,0.53,-1.51,8.65
7125.0,0.54,-1.48,8.49
7138.0,0.56,-1.43,8.46
7150.0,0.54,-1.35,8.52
7163.0,0.45,-1.22,8.34
7176.0,0.49,-0.87,7.63
7189.0,0.24,-0.49,6.66
7202.0,0.18,0.05,5.43
7215.0,0.42,0.56,4.65
7228.0,0.71,0.6,4.57
7240.0,0.8,0.35,5.32
7253.0,0.65,-0.01,5.78
7266.0,0.37,-0.17,5.8
7279.0,0.3,-0.3,5.83
7292.0,0.35,-0.43,6.11
7305.0,0.45,-0.51,6.47
7318.0,0.51,-0.47,6.35
7330.0,0.5,-0.37,5.86
7343.0,0.51,-0.17,5.46
7356.0,0.54,-0.02,5.1
7369.0,0.48,0.1,4.9
7382.0,0.3,0.19,4.7
7395.0,0.01,0.32,4.64
7408.0,-0.19,0.53,4.72
7420.0,-0.2,0.59,5.14
7433.0,0.07,0.68,5.63
7446.0,0.45,0.82,5.76
7459.0,0.81,0.86,6.01
7472.0,1.19,0.68,6.55
7485.0,1.3,0.36,7.11
7497.0,0.84,0.25,7.13
7510.0,0.64,0.32,7.01
7523.0,0.84,0.42,6.92
7536.0,1.14,0.42,6.82
7549.0,1.48,0.07,7.1
7562.0,1.49,-0.51,7.91
7575.0,1.07,-0.97,8.27
7587.0,0.15,-1.19,7.96
7600.0,0.03,-1.3,8.21
7613.0,0.55,-1.19,8.65
7626.0,1.23,-0.94,9.27
7639.0,1.84,-0.81,10.0
7652.0,2.18,-0.84,10.53
7665.0,1.76,-1.36,10.93
7677.0,1.31,-2.02,11.8
7690.0,1.15,-2.64,12.77
7703.0,0.96,-2.98,13.55
7716.0,0.86,-3.06,13.76
7729.0,0.45,-3.08,13.39
7742.0,-0.15,-3.14,12.78
7755.0,-0.32,-3.2,12.31
7767.0,-0.14,-3.24,12.28
7780.0,0.33,-3.3,12.6
7793.0,0.58,-3.27,13.03
7806.0,0.54,-3.24,13.08
7819.0,0.27,-3.28,13.06
7832.0,0.29,-3.22,12.93
7845.0,0.68,-3.13,12.78
7857.0,1.14,-2.91,12.76
7870.0,1.34,-2.48,12.44
7883.0,1.44,-1.98,11.79
7896.0,1.74,-1.76,11.77
7909.0,2.09,-1.88,12.4
7922.0,2.21,-2.26,13.35
7935.0,1.95,-2.74,14.0
7947.0,1.56,-3.17,14.31
7960.0,1.3,-3.37,14.38
7973.0,1.26,-3.44,14.49
7986.0,1.36,-3.48,14.53
7999.0,1.3,-3.56,14.58
8012.0,1.31,-3.68,14.9
8025.0,1.22,-3.94,15.12
8037.0,1.15,-4.12,15.36
8050.0,1.05,-4.25,15.3
8063.0,0.99,-4.27,14.91
8076.0,0.85,-4.23,14.29
8089.0,0.62,-3.9,13.71
8102.0,0.4,-3.23,12.9
8115.0,0.55,-2.44,11.82
8127.0,0.88,-1.96,10.88
8140.0,0.81,-1.85,10.38
8153.0,0.39,-2.02,10.11
8166.0,0.08,-2.2,10.33
8179.0,-0.23,-2.57,10.77
8192.0,-0.58,-2.92,10.73
8205.0,-0.97,-2.94,10.09
8218.0,-1.14,-2.71,9.3
8230.0,-1.04,-2.37,8.73
8243.0,-0.66,-1.9,8.4
8256.0,-0.14,-1.15,7.99
8269.0,0.45,-0.27,7.25
8282.0,0.7,0.4,6.67
8295.0,0.71,0.62,6.65
8308.0,0.6,0.4,7.07
8320.0,0.43,0.05,7.43
8333.0,0.38,-0.04,7.49
8346.0,0.53,0.17,7.19
8359.0,0.82,0.62,6.58
8372.0,1.11,0.97,5.94
8385.0,1.2,1.19,5.33
8397.0,1.11,1.31,4.91
8410.0,0.94,1.39,4.63
8423.0,0.89,1.47,4.31
8436.0,0.87,1.47,4.03
8449.0,0.84,1.32,4.01
8462.0,0.64,0.94,4.09
8475.0,0.34,0.59,4.14
8487.0,-0.06,0.58,4.06
8500.0,-0.4,0.64,4.01
8513.0,-0.49,0.66,4.21
8526.0,-0.25,0.67,4.45
8539.0,0.08,0.62,4.74
8552.0,0.46,0.56,5.19
8564.0,0.75,0.7,5.56
8577.0,1.08,0.8,5.69
8590.0,1.43,0.65,6.05
8603.0,1.75,0.16,6.48
8616.0,1.27,-0.25,7.13
8629.0,0.64,-0.31,7.6
8642.0,0.19,-0.25,7.52
8654.0,0.25,-0.27,7.58
8667.0,0.89,-0.51,8.04
8680.0,1.59,-0.99,8.43
8693.0,1.64,-1.72,9.11
8706.0,0.99,-1.99,10.17
8719.0,0.38,-1.89,10.78
8732.0,0.19,-1.8,11.2
8744.0,0.79,-1.75,11.17
8757.0,1.95,-1.85,11.42
8770.0,3.3,-1.99,12.28
8783.0,3.12,-2.95,12.96
8796.0,1.69,-3.62,13.75
8809.0,-0.02,-3.58,13.61
8822.0,-1.01,-3.34,13.36
8834.0,-0.08,-2.97,13.87
8847.0,1.63,-2.65,15.13
8860.0,2.51,-2.66,15.92
8873.0,2.23,-3.12,16.2
8886.0,1.42,-3.61,16.01
8899.0,0.58,-3.85,15.27
8912.0,0.08,-3.7,14.36
8924.0,-0.06,-3.1,13.14
8937.0,0.11,-2.46,11.96
8950.0,0.43,-2.12,11.58
8963.0,0.76,-2.12,11.68
8976.0,0.7,-2.43,11.71
8989.0,0.23,-2.66,11.37
9002.0,-0.03,-2.62,10.93
9015.0,0.59,-2.38,11.5
9027.0,1.39,-2.23,12.3
9040.0,1.99,-2.1,12.7
9053.0,2.16,-2.06,13.06
9066.0,1.87,-2.26,13.48
9079.0,1.34,-2.58,13.85
9092.0,0.86,-2.83,14.07
9105.0,0.73,-2.95,14.22
9117.0,0.86,-3.06,14.42
9130.0,1.2,-3.18,15.1
9143.0,1.53,-3.31,15.93
9156.0,1.66,-3.51,16.36
9169.0,1.34,-3.61,16.17
9182.0,0.83,-3.55,15.16
9195.0,0.4,-3.25,13.8
9207.0,0.27,-2.82,12.46
9220.0,0.29,-2.3,10.98
9233.0,0.46,-1.82,9.97
9246.0,0.76,-1.34,9.05
9259.0,0.81,-1.15,8.35
9272.0,0.47,-1.3,8.11
9285.0,-0.04,-1.84,8.67
9297.0,-0.49,-2.52,9.24
9310.0,-0.66,-2.72,8.96
9323.0,-0.59,-2.39,8.08
9336.0,-0.48,-1.71,6.72
9349.0,-0.25,-0.89,5.67
9362.0,0.01,-0.23,4.91
9375.0,0.28,0.25,4.63
9387.0,0.48,0.63,4.37
9400.0,0.51,0.85,4.12
9413.0,0.51,0.95,4.09
9426.0,0.47,0.97,4.2
9439.0,0.39,0.82,4.5
9452.0,0.32,0.58,4.81
9465.0,0.25,0.5,4.92
9477.0,0.39,0.74,4.54
9490.0,0.62,1.09,3.93
9503.0,0.74,1.35,3.42
9516.0,0.61,1.37,3.67
9529.0,0.25,1.24,4.25
9542.0,0.05,1.11,4.83
9554.0,0.14,1.03,5.73
9567.0,0.51,0.95,6.64
9580.0,0.96,0.94,7.07
9593.0,1.47,0.88,7.34
9606.0,1.8,0.69,7.49
9619.0,1.69,0.57,7.66
9631.0,1.37,0.49,7.73
9644.0,0.86,0.16,7.83
9657.0,0.3,-0.31,8.04
9670.0,-0.16,-0.84,8.51
9683.0,-0.06,-1.23,8.98
9696.0,0.37,-1.18,9.09
9709.0,1.08,-0.82,9.17
9721.0,1.58,-0.51,9.27
9734.0,1.6,-0.68,9.57
9747.0,1.18,-1.02,9.7
9760.0,-0.01,-1.75,9.59
9773.0,-0.41,-2.14,10.05
9786.0,0.11,-2.08,10.82
9799.0,1.01,-1.87,11.7
9812.0,1.65,-1.83,12.34
9824.0,1.67,-1.84,12.28
9837.0,1.29,-1.86,11.92
9850.0,0.6,-1.98,11.49
9863.0,-0.05,-2.15,11.52
9876.0,-0.01,-2.38,12.29
9889.0,0.31,-2.6,13.31
9902.0,0.55,-2.84,13.89
9914.0,0.51,-2.87,13.87
9927.0,0.48,-2.74,13.4
9940.0,0.36,-2.44,12.79
9953.0,0.22,-2.23,12.24
9966.0,-0.03,-2.16,11.73
9979.0,-0.17,-2.16,11.53
9992.0,-0.05,-2.08,11.77
10004.0,0.28,-2.07,12.3
10017.0,0.71,-2.13,12.98
10030.0,0.88,-2.21,13.49
10043.0,0.72,-2.24,13.66
10056.0,0.59,-2.1,13.64
10069.0,0.64,-2.08,13.85
10082.0,0.69,-2.26,14.35
10094.0,0.7,-2.59,14.9
10107.0,0.65,-2.93,15.35
10120.0,0.62,-3.15,15.7
10133.0,0.33,-3.37,15.8
10146.0,0.04,-3.55,15.96
10159.0,0.01,-3.68,16.08
10172.0,0.11,-3.68,15.76
10184.0,0.17,-3.58,15.17
10197.0,0.16,-3.38,14.23
10210.0,0.2,-2.96,13.03
10223.0,0.31,-2.32,11.89
10236.0,0.7,-1.49,10.84
10249.0,1.55,-0.81,9.89
10262.0,2.25,-0.37,9.51
10274.0,2.26,-0.55,9.79
10287.0,1.74,-1.34,10.32
10300.0,1.08,-2.08,10.38
10313.0,0.5,-2.39,9.85
10326.0,0.01,-2.26,9.02
10339.0,-0.12,-2.0,8.12
10352.0,-0.02,-1.79,7.4
10365.0,0.62,-1.53,7.14
10377.0,1.22,-1.22,7.14
10390.0,1.43,-0.92,6.95
10403.0,1.28,-0.72,6.58
10416.0,0.91,-0.67,6.3
10429.0,0.57,-0.67,6.23
10442.0,0.26,-0.53,6.03
10455.0,0.19,-0.12,5.72
10467.0,0.31,0.42,5.1
10480.0,0.51,0.85,4.38
10493.0,0.61,1.13,3.87
10506.0,0.64,1.27,3.53
10519.0,0.5,1.33,3.26
10532.0,0.28,1.24,3.27
10544.0,-0.08,1.15,3.28
10557.0,-0.39,1.06,3.33
10570.0,-0.53,0.92,3.62
10583.0,-0.34,0.83,4.26
10596.0,0.13,0.76,5.19
10609.0,0.67,0.73,6.01
10622.0,0.91,0.69,6.53
10634.0,0.93,0.58,6.79
10647.0,1.13,0.29,7.35
10660.0,1.33,0.07,8.02
10673.0,1.35,-0.2,8.23
10686.0,1.04,-0.48,8.25
10699.0,0.72,-0.79,8.09
10711.0,0.49,-0.81,8.07
10724.0,0.35,-0.5,7.72
10737.0,0.59,-0.2,7.52
10750.0,1.25,-0.38,7.9
10763.0,1.65,-0.79,8.63
10776.0,1.17,-1.19,9.28
10789.0,0.37,-1.57,9.82
10802.0,-0.34,-1.93,10.28
10814.0,-0.57,-2.29,10.65
10827.0,0.12,-2.37,10.95
10840.0,1.36,-2.23,11.49
10853.0,1.91,-2.0,11.77
10866.0,1.65,-1.61,11.35
10879.0,0.96,-1.45,11.22
10892.0,0.63,-1.81,12.02
10904.0,1.22,-2.42,13.87
10917.0,1.79,-2.75,14.79
10930.0,2.07,-2.96,14.78
10943.0,1.47,-2.7,13.84
10956.0,0.82,-2.56,12.95
10969.0,0.14,-2.79,12.87
10982.0,-0.48,-3.33,13.29
10994.0,-0.79,-3.69,13.61
11007.0,-0.89,-3.71,13.68
11020.0,-0.82,-3.54,13.53
11033.0,-0.36,-3.4,13.49
11046.0,0.18,-3.3,13.7
11059.0,0.38,-3.14,13.78
11072.0,0.35,-2.99,13.74
11084.0,0.39,-2.95,13.97
11097.0,0.58,-3.04,14.47
11110.0,0.65,-3.23,15.02
11123.0,0.55,-3.42,15.37
11136.0,0.61,-3.52,15.63
11149.0,0.84,-3.49,15.79
11162.0,1.12,-3.36,15.63
11175.0,1.26,-3.24,15.14
11187.0,1.04,-3.26,14.79
11200.0,0.52,-3.48,14.49
11213.0,-0.14,-3.69,14.07
11226.0,-0.33,-3.59,13.53
11239.0,0.08,-3.17,12.94
11252.0,0.78,-2.71,12.27
11265.0,1.25,-2.31,11.43
11277.0,1.33,-2.01,10.42
11290.0,1.05,-1.64,9.49
11303.0,0.78,-1.1,8.28
11316.0,0.54,-0.66,7.44
11329.0,0.48,-0.45,7.06
11342.0,0.53,-0.42,7.08
11355.0,0.69,-0.47,7.26
11367.0,0.81,-0.52,7.37
11380.0,0.84,-0.5,7.26
11393.0,0.68,-0.45,6.84
11406.0,0.45,-0.38,6.3
11419.0,0.18,-0.2,5.93
11432.0,0.03,-0.09,5.62
11445.0,-0.21,-0.05,5.29
11457.0,-0.42,-0.08,5.04
11470.0,-0.54,-0.11,4.94
11483.0,-0.52,-0.06,4.86
11496.0,-0.21,-0.02,4.8
11509.0,0.01,-0.19,4.72
11522.0,-0.02,-0.57,5.01
11535.0,-0.23,-0.83,5.29
11548.0,-0.54,-0.74,5.09
11560.0,-0.67,-0.4,4.66
11573.0,-0.65,-0.09,4.43
11586.0,-0.51,0.18,4.37
11599.0,-0.4,0.34,4.44
11612.0,-0.26,0.38,4.94
11625.0,-0.1,0.38,5.57
11638.0,0.31,0.22,6.52
11650.0,0.71,-0.06,7.35
11663.0,1.05,-0.32,7.66
11676.0,1.2,-0.62,7.75
11689.0,1.05,-0.84,7.79
11702.0,0.62,-0.81,7.73
11715.0,0.22,-0.78,7.71
11728.0,0.18,-0.92,7.9
11740.0,0.65,-1.07,8.29
11753.0,1.2,-1.3,8.88
11766.0,1.56,-1.52,9.62
11779.0,1.69,-1.35,9.49
11792.0,1.32,-1.01,8.34
11805.0,0.26,-1.13,7.36
11818.0,0.01,-1.81,8.18
11830.0,-0.63,-3.31,10.07
11843.0,-0.86,-4.51,12.16
11856.0,-0.64,-4.91,13.76
11869.0,-0.36,-4.33,13.6
11882.0,-0.04,-3.59,13.07
11895.0,0.14,-3.2,12.47
11908.0,0.24,-3.09,12.05
11921.0,0.22,-3.12,12.33
11933.0,0.21,-3.05,12.75
11946.0,0.18,-3.16,13.15
11959.0,0.26,-3.47,13.65
11972.0,0.29,-3.68,13.85
11985.0,-0.06,-3.69,13.99
11998.0,-0.27,-3.69,13.99
12011.0,-0.34,-3.75,14.2
12023.0,-0.2,-3.83,14.39
12036.0,0.01,-3.83,14.55
12049.0,0.2,-3.81,14.83
12062.0,0.3,-3.84,14.91
12075.0,0.31,-3.91,14.89
12088.0,0.18,-3.93,14.46
12101.0,0.11,-3.79,14.08
12113.0,0.19,-3.59,13.63
12126.0,0.25,-3.4,13.2
12139.0,0.37,-3.26,12.97
12152.0,0.42,-3.21,12.98
12165.0,0.38,-3.21,13.07
12178.0,0.19,-3.15,13.15
12191.0,-0.02,-3.12,13.25
12204.0,-0.08,-3.01,13.23
12216.0,0.13,-3.0,13.57
12229.0,0.43,-3.1,13.85
12242.0,0.66,-3.33,14.11
12255.0,0.66,-3.43,14.09
12268.0,0.62,-3.14,12.98
12281.0,0.27,-2.66,11.82
12294.0,0.09,-2.35,11.0
12306.0,0.11,-2.19,10.41
12319.0,0.32,-1.95,9.97
12332.0,0.66,-1.49,9.5
12345.0,0.86,-0.99,8.85
12358.0,0.99,-0.44,8.18
12371.0,1.11,-0.23,7.87
12384.0,0.96,-0.33,7.65
12396.0,0.66,-0.43,7.27
12409.0,0.48,-0.38,6.7
12422.0,0.39,-0.23,6.2
12435.0,0.33,-0.12,5.92
12448.0,0.41,-0.03,5.9
12461.0,0.44,-0.06,5.95
12474.0,0.35,-0.04,5.87
12486.0,0.22,0.12,5.41
12499.0,0.16,0.43,4.72
12512.0,0.12,0.73,4.01
12525.0,0.19,0.85,3.53
12538.0,0.19,0.71,3.67
12551.0,0.19,0.36,3.96
12563.0,0.24,0.14,4.63
12576.0,0.32,0.02,5.12
12589.0,0.25,0.16,4.98
12602.0,-0.03,0.4,4.36
12615.0,-0.23,0.6,4.1
12628.0,-0.31,0.84,4.2
12641.0,0.18,0.92,4.91
12653.0,0.77,0.75,6.2
12666.0,1.29,0.43,7.65
12679.0,1.48,0.08,8.43
12692.0,1.22,-0.06,8.43
12705.0,0.96,-0.08,7.81
12718.0,0.65,-0.06,7.29
12730.0,0.05,-0.11,6.95
12743.0,-0.48,-0.08,6.41
12756.0,-0.95,-0.01,6.3
12769.0,-0.64,-0.39,7.23
12782.0,-0.12,-1.03,8.45
12795.0,0.2,-1.61,9.53
12808.0,0.23,-1.93,10.09
12821.0,-0.16,-2.1,9.89
12833.0,-0.65,-2.01,9.4
12846.0,-0.69,-1.7,9.1
