timestamp,accX,accY,accZ
2.0,2.1,-3.13,14.78
15.0,1.41,-2.19,11.37
28.0,1.16,-2.0,12.44
41.0,0.57,-1.49,12.29
54.0,0.14,-1.36,12.09
66.0,0.23,-1.82,12.73
79.0,0.63,-2.55,13.61
92.0,0.87,-2.98,13.9
105.0,0.97,-2.88,13.3
118.0,0.93,-2.61,12.26
131.0,0.84,-2.39,11.2
144.0,0.87,-2.38,10.68
157.0,0.94,-2.56,10.57
169.0,0.93,-2.67,10.38
182.0,0.88,-2.69,9.97
195.0,1.06,-2.54,9.58
208.0,1.0,-2.32,8.79
221.0,0.83,-1.87,8.03
234.0,0.74,-1.44,7.49
247.0,0.46,-0.79,6.7
259.0,0.26,-0.64,6.22
272.0,0.58,-0.83,6.36
285.0,1.04,-0.98,6.49
298.0,1.46,-0.95,6.32
311.0,1.66,-0.63,5.66
324.0,1.73,-0.25,4.97
337.0,1.72,0.1,4.46
349.0,1.47,0.26,4.18
362.0,1.01,-0.0,4.77
375.0,0.79,-0.41,5.66
388.0,0.72,-0.47,5.85
401.0,0.9,-0.14,5.23
414.0,0.99,0.29,4.16
426.0,1.12,0.43,3.69
439.0,1.32,0.33,4.1
452.0,1.52,0.01,4.86
465.0,1.85,-0.14,5.6
478.0,1.82,-0.08,5.82
491.0,1.52,0.15,5.68
504.0,1.0,0.26,5.5
516.0,0.64,0.04,5.72
529.0,0.55,-0.43,6.41
542.0,0.71,-0.78,6.82
555.0,1.0,-0.95,6.8
568.0,1.33,-1.1,7.01
581.0,1.68,-1.38,7.29
594.0,2.22,-1.5,7.7
606.0,2.52,-1.34,7.9
619.0,2.37,-0.82,7.6
632.0,1.75,-0.35,7.58
645.0,1.14,-0.2,8.18
658.0,0.92,-0.39,9.02
671.0,0.88,-0.86,9.83
684.0,1.21,-1.5,11.08
696.0,1.66,-2.04,12.11
709.0,1.87,-2.24,12.35
722.0,1.42,-2.08,12.06
735.0,0.91,-1.88,11.88
748.0,0.58,-1.61,11.84
761.0,0.42,-1.52,11.92
774.0,0.53,-1.6,12.29
786.0,0.86,-1.76,12.66
799.0,1.23,-1.9,12.86
812.0,1.53,-1.99,12.86
825.0,1.76,-2.02,12.96
838.0,1.45,-2.1,13.18
851.0,0.88,-2.25,13.8
864.0,0.52,-2.63,14.71
876.0,0.68,-2.99,15.49
889.0,1.18,-3.16,15.79
902.0,1.7,-3.06,15.52
915.0,1.65,-2.84,14.88
928.0,1.27,-2.86,14.59
941.0,0.94,-3.31,15.04
954.0,0.97,-3.79,15.54
966.0,1.15,-3.95,15.38
979.0,1.37,-3.86,14.69
992.0,1.35,-3.64,13.95
1005.0,1.23,-3.51,13.67
1018.0,1.14,-3.56,13.85
1031.0,1.2,-3.65,13.95
1044.0,1.13,-3.65,13.86
1056.0,0.87,-3.66,13.72
1069.0,0.69,-3.73,13.58
1082.0,0.97,-3.91,13.56
1095.0,1.5,-4.04,13.53
1108.0,1.73,-3.85,12.91
1121.0,1.44,-3.41,11.98
1134.0,0.76,-2.92,11.12
1146.0,0.3,-2.7,10.56
1159.0,0.43,-2.53,9.84
1172.0,0.84,-2.34,9.58
1185.0,1.07,-2.15,8.92
1198.0,1.4,-1.7,8.47
1211.0,1.19,-1.61,7.84
1224.0,0.9,-1.67,7.47
1236.0,0.78,-2.16,7.76
1249.0,1.2,-2.83,8.43
1262.0,1.84,-3.15,8.53
1275.0,2.24,-3.11,8.08
1288.0,2.65,-2.8,7.3
1301.0,2.71,-2.22,6.32
1314.0,2.12,-1.47,5.27
1326.0,1.65,-0.65,4.34
1339.0,1.51,-0.17,3.95
1352.0,1.65,0.14,3.73
1365.0,1.67,0.3,3.56
1378.0,1.55,0.21,3.67
1391.0,1.38,0.02,4.05
1403.0,1.21,-0.11,4.42
1416.0,1.04,-0.12,4.36
1429.0,1.05,0.05,3.99
1442.0,1.29,0.13,3.89
1455.0,1.84,0.02,4.25
1468.0,2.35,-0.12,4.59
1481.0,2.55,-0.18,4.84
1493.0,2.58,-0.3,5.24
1506.0,2.44,-0.53,5.79
1519.0,2.09,-0.68,6.43
1532.0,1.73,-0.7,6.84
1545.0,1.53,-0.71,7.06
1558.0,1.57,-0.75,6.97
1571.0,1.7,-1.05,7.24
1583.0,2.23,-1.84,8.26
1596.0,3.04,-2.56,9.58
1609.0,3.15,-2.72,10.2
1622.0,2.43,-2.26,10.1
1635.0,1.4,-1.52,9.11
1648.0,0.57,-0.84,8.18
1661.0,0.19,-0.33,7.34
1673.0,0.64,-0.05,6.88
1686.0,1.79,-0.21,7.26
1699.0,2.69,-0.97,8.71
1712.0,2.98,-1.86,10.78
1725.0,2.38,-2.52,12.62
1738.0,1.02,-2.52,13.14
1751.0,-0.52,-2.0,12.72
1763.0,-1.15,-1.3,11.57
1776.0,-1.08,-1.03,10.94
1789.0,-0.23,-1.44,11.49
1802.0,1.48,-2.69,13.01
1815.0,2.89,-3.89,15.25
1828.0,2.94,-4.39,16.65
1841.0,1.85,-4.02,16.71
1854.0,0.74,-3.16,15.59
1866.0,0.15,-2.38,14.46
1879.0,0.35,-2.04,14.0
1892.0,0.69,-2.13,14.45
1905.0,0.89,-2.6,14.87
1918.0,1.35,-3.0,15.46
1931.0,1.52,-3.16,15.75
1944.0,0.93,-2.81,15.39
1956.0,0.45,-2.28,14.77
1969.0,0.23,-1.81,14.23
1982.0,0.16,-1.35,13.44
1995.0,0.12,-1.13,12.79
2008.0,0.24,-1.51,12.9
2021.0,0.43,-2.38,14.17
2034.0,0.73,-3.22,15.19
2046.0,0.9,-3.64,15.33
2059.0,0.65,-3.35,14.64
2072.0,0.35,-2.73,13.31
2085.0,0.31,-2.29,12.16
2098.0,0.51,-2.13,11.54
2111.0,0.67,-2.21,11.26
2124.0,0.9,-2.43,11.31
2136.0,1.0,-2.79,11.49
2149.0,0.81,-2.89,11.5
2162.0,0.4,-2.52,10.79
2175.0,0.03,-1.91,9.65
2188.0,-0.23,-1.38,8.33
2201.0,-0.65,-1.57,8.2
2214.0,-0.31,-2.27,9.16
2226.0,0.45,-2.66,9.33
2239.0,1.24,-2.57,8.83
2252.0,1.71,-2.08,7.94
2265.0,1.77,-1.39,6.8
2278.0,1.11,-0.85,5.66
2291.0,0.06,-0.85,5.9
2304.0,-0.22,-1.12,6.77
2316.0,0.26,-1.21,6.77
2329.0,0.86,-0.85,5.95
2342.0,1.14,-0.02,4.75
2355.0,1.03,0.65,3.57
2368.0,0.83,0.68,3.52
2381.0,0.67,0.19,4.34
2394.0,0.62,-0.54,5.67
2406.0,0.58,-0.81,6.25
2419.0,0.52,-0.39,5.71
2432.0,0.68,0.53,4.62
2445.0,1.0,1.36,3.85
2458.0,0.81,1.49,3.2
2471.0,0.74,1.13,3.54
2484.0,1.31,0.37,5.16
2496.0,1.5,-0.36,6.37
2509.0,1.61,-1.1,7.79
2522.0,1.46,-1.68,8.69
2535.0,1.31,-1.82,9.34
2548.0,1.36,-1.32,8.76
2561.0,1.24,-0.52,7.06
2574.0,1.23,0.24,5.5
2586.0,1.33,0.37,4.88
2599.0,1.49,-0.33,5.66
2612.0,1.84,-1.27,7.41
2625.0,2.1,-2.07,9.26
2638.0,2.19,-2.51,10.9
2651.0,1.75,-2.2,11.21
2663.0,1.22,-1.35,10.23
2676.0,0.86,-0.55,9.04
2689.0,0.3,0.12,8.25
2702.0,-0.28,0.53,7.1
2715.0,-0.39,0.34,7.09
2728.0,0.19,-0.55,8.49
2741.0,1.29,-1.99,11.91
2753.0,1.71,-3.17,14.2
2766.0,1.93,-3.44,15.36
2779.0,1.68,-2.93,14.18
2792.0,0.16,-1.48,12.51
2805.0,-2.13,0.37,10.42
2818.0,-3.26,1.44,8.97
2831.0,-2.98,1.22,8.87
2843.0,-0.67,-0.69,10.83
2856.0,1.82,-3.39,14.56
2869.0,3.1,-5.43,17.93
2882.0,3.62,-6.64,19.61
2895.0,2.92,-6.04,19.61
2908.0,1.29,-4.18,17.41
2921.0,0.32,-2.16,14.73
2934.0,0.74,-1.0,13.3
2946.0,1.53,-1.0,13.33
2959.0,1.52,-1.66,14.53
2972.0,1.13,-2.26,15.37
2985.0,0.72,-2.47,15.56
2998.0,0.49,-2.31,15.19
3011.0,0.17,-1.81,14.5
3024.0,0.12,-1.4,13.99
3036.0,0.18,-1.11,13.57
3049.0,0.12,-1.36,13.44
3062.0,0.2,-1.95,13.91
3075.0,0.31,-2.58,14.4
3088.0,0.54,-2.87,14.53
3101.0,0.67,-2.55,13.82
3114.0,0.86,-1.87,12.19
3126.0,0.85,-0.97,10.15
3139.0,0.02,-0.8,8.88
3152.0,-0.56,-1.73,10.32
3165.0,-0.29,-3.1,12.1
3178.0,0.39,-3.65,12.52
3191.0,1.06,-3.33,11.47
3204.0,1.43,-2.32,9.56
3216.0,1.43,-1.35,7.76
3229.0,1.31,-1.08,6.97
3242.0,1.19,-1.26,7.32
3255.0,0.92,-1.52,7.54
3268.0,0.7,-1.58,7.54
3281.0,0.68,-1.41,7.23
3294.0,0.88,-0.91,6.58
3306.0,0.89,-0.26,5.5
3319.0,0.69,-0.22,5.32
3332.0,0.8,-0.58,6.22
3345.0,1.18,-0.87,6.98
3358.0,1.39,-0.71,7.09
3371.0,1.21,0.01,6.01
3384.0,0.96,1.09,4.56
3396.0,0.4,1.88,3.29
3409.0,0.08,2.06,3.02
3422.0,-0.01,1.57,3.62
3435.0,0.2,0.8,4.72
3448.0,0.6,0.24,5.73
3461.0,1.09,-0.02,6.04
3473.0,1.46,-0.06,5.83
3486.0,1.43,-0.03,5.96
3499.0,0.89,-0.04,6.3
3512.0,0.67,-0.08,6.65
3525.0,0.68,-0.07,6.69
3538.0,0.82,-0.11,6.91
3551.0,0.97,-0.11,7.03
3563.0,0.87,-0.13,7.25
3576.0,0.58,-0.28,7.48
3589.0,0.47,-0.56,7.69
3602.0,0.82,-0.66,7.96
3615.0,1.53,-0.25,7.3
3628.0,2.12,0.32,6.39
3641.0,2.34,0.71,5.97
3653.0,2.01,0.41,6.17
3666.0,1.23,-0.47,7.43
3679.0,0.28,-1.64,9.45
3692.0,-0.01,-2.57,11.34
3705.0,0.36,-3.0,12.29
3718.0,1.32,-2.87,12.47
3731.0,2.2,-1.8,11.37
3743.0,1.87,-0.57,9.79
3756.0,0.69,0.35,9.15
3769.0,-0.35,0.48,9.7
3782.0,-1.2,-0.11,11.2
3795.0,-1.46,-0.92,13.02
3808.0,-0.79,-1.61,14.18
3821.0,0.26,-1.86,14.49
3834.0,1.09,-1.74,14.21
3846.0,1.43,-1.44,13.98
3859.0,1.36,-1.35,14.19
3872.0,1.21,-1.4,14.63
3885.0,1.17,-1.72,15.29
3898.0,1.52,-2.23,16.14
3911.0,2.04,-2.7,17.16
3924.0,2.21,-2.81,17.58
3936.0,1.79,-2.43,17.25
3949.0,0.95,-1.81,16.16
3962.0,0.07,-1.41,15.56
3975.0,-0.29,-1.46,15.76
3988.0,-0.19,-1.75,16.23
4001.0,0.17,-2.14,16.64
4014.0,0.49,-2.4,16.79
4026.0,0.34,-2.42,16.26
4039.0,0.12,-2.38,15.84
4052.0,0.06,-2.34,15.24
4065.0,-0.12,-2.31,14.56
4078.0,-0.3,-2.1,13.76
4091.0,-0.25,-1.73,12.75
4104.0,-0.28,-1.64,12.03
4116.0,-0.05,-1.57,11.55
4129.0,-0.13,-1.69,10.86
4142.0,-0.23,-1.42,9.95
4155.0,-0.36,-1.04,9.08
4168.0,-0.47,-0.63,8.25
4181.0,-0.49,-0.46,7.68
4194.0,-0.47,-0.66,7.36
4207.0,-0.34,-1.28,7.32
4219.0,0.22,-2.03,8.15
4232.0,0.78,-2.64,8.37
4245.0,1.45,-2.48,8.13
4258.0,1.84,-1.64,6.8
4271.0,1.89,-0.55,4.81
4284.0,1.51,0.45,2.99
4297.0,1.06,0.97,2.55
4309.0,0.55,0.71,3.44
4322.0,0.76,0.13,4.4
4335.0,1.14,-0.15,4.95
4348.0,1.33,0.02,4.95
4361.0,1.34,0.27,4.55
4374.0,1.26,0.56,4.19
4387.0,1.14,0.83,3.92
4399.0,0.91,1.05,3.6
4412.0,0.81,1.1,3.59
4425.0,0.92,0.98,4.05
4438.0,1.2,0.73,4.8
4451.0,1.55,0.55,5.37
4464.0,1.77,0.62,5.44
4476.0,1.78,0.77,5.15
4489.0,1.57,0.68,5.0
4502.0,1.58,0.34,5.61
4515.0,1.65,-0.07,6.42
4528.0,1.63,-0.41,6.95
4541.0,1.49,-0.54,6.93
4554.0,1.54,-0.58,6.77
4566.0,1.78,-0.72,7.16
4579.0,2.04,-0.83,7.62
4592.0,2.25,-0.9,8.15
4605.0,2.02,-1.08,8.76
4618.0,1.55,-0.94,9.16
4631.0,0.76,-0.57,8.77
4644.0,-0.32,-0.38,8.62
4656.0,-1.33,-0.56,8.95
4669.0,-1.68,-1.19,10.09
4682.0,-0.98,-1.95,11.44
4695.0,0.03,-2.34,12.26
4708.0,0.8,-2.35,12.16
4721.0,1.25,-2.17,11.93
4734.0,1.53,-2.25,12.28
4746.0,1.4,-2.68,13.41
4759.0,0.92,-2.92,14.53
4772.0,0.56,-2.94,15.1
4785.0,0.68,-2.74,15.33
4798.0,0.9,-2.38,14.93
4811.0,1.03,-1.96,14.43
4824.0,1.15,-1.72,14.2
4836.0,1.19,-1.76,14.28
4849.0,1.47,-2.17,15.01
4862.0,1.72,-2.72,16.08
4875.0,1.83,-3.0,16.76
4888.0,1.54,-3.07,16.99
4901.0,1.35,-2.92,16.73
4914.0,1.44,-2.64,16.13
4926.0,1.53,-2.33,15.33
4939.0,1.45,-2.09,14.62
4952.0,1.49,-1.98,14.21
4965.0,1.69,-1.99,13.8
4978.0,1.85,-1.91,13.3
4991.0,1.45,-1.97,13.07
5004.0,0.92,-2.27,13.35
5016.0,0.82,-2.74,13.77
5029.0,0.94,-3.2,13.96
5042.0,1.31,-3.49,13.93
5055.0,1.65,-3.27,13.2
5068.0,1.72,-2.74,12.11
5081.0,1.73,-2.4,11.26
5094.0,1.26,-2.47,11.17
5107.0,0.24,-2.76,11.46
5119.0,-0.5,-2.93,11.4
5132.0,-0.23,-2.75,10.87
5145.0,0.37,-2.22,9.84
5158.0,0.9,-1.64,8.78
5171.0,1.23,-1.12,7.52
5184.0,1.44,-0.59,6.98
5197.0,0.96,-0.8,6.83
5209.0,0.74,-1.5,7.54
5222.0,1.08,-2.1,8.22
5235.0,1.32,-2.37,8.22
5248.0,1.57,-2.1,7.89
5261.0,1.65,-1.57,6.86
5274.0,1.15,-0.92,6.04
5287.0,0.59,-0.47,5.52
5299.0,0.37,-0.27,5.16
5312.0,0.31,-0.0,4.61
5325.0,0.41,0.3,4.17
5338.0,0.44,0.41,4.07
5351.0,0.46,0.39,4.18
5364.0,0.61,0.22,4.54
5376.0,0.83,0.1,4.78
5389.0,1.02,0.16,4.71
5402.0,1.0,0.37,4.33
5415.0,0.91,0.42,4.32
5428.0,0.88,0.28,4.73
5441.0,0.99,-0.03,5.43
5454.0,1.21,-0.38,6.3
5466.0,1.56,-0.53,6.97
5479.0,1.83,-0.37,6.99
5492.0,2.12,-0.07,6.5
5505.0,2.29,0.07,6.07
5518.0,2.32,0.06,5.94
5531.0,2.3,-0.38,6.59
5544.0,1.98,-0.64,7.64
5556.0,1.32,-0.9,8.35
5569.0,1.09,-0.99,8.83
5582.0,1.08,-0.95,9.3
5595.0,1.5,-0.52,9.33
5608.0,1.82,0.08,8.85
5621.0,1.88,0.96,7.88
5633.0,1.53,1.45,7.1
5646.0,0.86,1.12,7.64
5659.0,0.59,0.02,10.16
5672.0,0.8,-1.49,12.86
5685.0,1.3,-2.44,14.8
5698.0,1.77,-2.2,14.63
5711.0,2.05,-1.2,12.86
5723.0,1.94,-0.24,11.11
5736.0,1.34,0.26,10.46
5749.0,0.64,0.21,11.07
5762.0,0.05,-0.29,12.02
5775.0,-0.34,-0.98,13.68
5788.0,-0.51,-1.55,14.87
5801.0,-0.21,-1.8,15.25
5813.0,0.64,-1.67,15.0
5826.0,1.27,-1.18,14.25
5839.0,1.23,-0.7,13.55
5852.0,0.8,-0.66,13.7
5865.0,0.55,-1.05,14.54
5878.0,0.33,-1.44,15.39
5891.0,0.32,-1.61,15.67
5903.0,0.5,-1.57,15.51
5916.0,0.66,-1.28,14.85
5929.0,0.51,-1.0,14.21
5942.0,0.45,-0.9,13.97
5955.0,0.38,-1.13,14.13
5968.0,0.25,-1.44,14.43
5981.0,0.29,-1.59,14.5
5994.0,0.56,-1.62,14.38
6006.0,0.93,-1.57,14.0
6019.0,1.06,-1.51,13.56
6032.0,0.63,-1.74,13.68
6045.0,0.37,-1.95,13.83
6058.0,0.24,-1.87,13.27
6071.0,0.13,-1.61,12.52
6084.0,0.25,-1.49,11.95
6096.0,0.41,-1.8,11.87
6109.0,0.76,-2.33,12.33
6122.0,1.68,-2.61,12.1
6135.0,1.88,-2.78,11.71
6148.0,2.09,-2.38,10.74
6161.0,2.08,-1.81,9.17
6174.0,2.04,-1.07,7.85
6186.0,1.67,-0.62,6.82
6199.0,1.35,-0.45,6.24
6212.0,1.53,-0.75,6.18
6225.0,1.62,-1.64,7.44
6238.0,2.04,-2.33,8.3
6251.0,2.38,-2.4,8.15
6264.0,2.26,-1.62,6.73
6276.0,1.63,-0.38,5.08
6289.0,1.2,0.54,3.97
6302.0,1.13,1.15,3.72
6315.0,1.01,1.32,3.39
6328.0,1.11,0.9,3.93
6341.0,1.15,0.14,5.2
6353.0,1.21,-0.3,5.99
6366.0,1.12,-0.14,5.62
6379.0,0.99,0.28,4.82
6392.0,1.02,0.59,4.31
6405.0,1.03,0.69,4.17
6418.0,1.0,0.68,4.45
6431.0,0.84,0.6,4.76
6443.0,0.68,0.41,5.45
6456.0,0.56,0.25,6.0
6469.0,0.53,0.16,6.16
6482.0,0.65,0.18,6.04
6495.0,0.65,0.28,5.44
6508.0,0.39,0.28,4.97
6520.0,0.09,-0.04,5.33
6533.0,-0.07,-0.69,6.26
6546.0,0.49,-1.36,7.57
6559.0,1.49,-1.76,8.68
6572.0,2.39,-1.78,8.84
6585.0,2.3,-1.21,7.6
6598.0,1.33,-0.18,5.88
6610.0,-0.58,0.12,6.2
6623.0,-2.55,-0.47,7.53
6636.0,-2.23,-1.68,9.89
6649.0,-0.4,-2.67,12.2
6662.0,1.4,-3.33,13.57
6675.0,2.49,-3.38,13.64
6688.0,2.43,-2.68,12.45
6701.0,1.32,-1.74,11.78
6713.0,-0.11,-1.61,11.56
6726.0,-0.32,-2.48,12.91
6739.0,1.19,-3.72,15.51
6752.0,2.66,-4.51,16.78
6765.0,3.41,-4.32,16.66
6778.0,2.85,-3.17,15.45
6791.0,1.41,-2.08,14.0
6803.0,0.18,-1.55,13.59
6816.0,-0.43,-1.61,14.08
6829.0,-0.11,-2.16,15.13
6842.0,0.89,-2.91,16.43
6855.0,1.73,-3.27,17.02
6868.0,1.57,-2.93,16.31
6881.0,0.93,-2.37,15.29
6893.0,0.35,-1.96,14.55
6906.0,0.15,-1.82,14.19
6919.0,0.32,-1.91,14.04
6932.0,0.52,-2.18,14.08
6945.0,0.6,-2.57,14.44
6958.0,0.67,-2.76,14.53
6971.0,0.37,-2.84,14.36
6983.0,0.11,-2.76,14.17
6996.0,-0.08,-2.51,13.66
7009.0,-0.02,-2.17,13.01
7022.0,0.09,-1.94,12.56
7035.0,0.26,-1.87,12.18
7048.0,0.42,-2.01,12.1
7061.0,0.55,-2.34,12.19
7074.0,0.57,-2.57,12.24
7086.0,0.21,-2.61,11.99
7099.0,-0.37,-2.27,11.64
7112.0,-0.63,-1.73,10.81
7125.0,-0.59,-1.15,9.67
7138.0,-0.49,-0.91,8.55
7151.0,0.3,-1.25,8.76
7164.0,1.01,-1.64,9.17
7176.0,1.23,-1.59,8.94
7189.0,0.87,-1.17,8.01
7202.0,0.23,-0.6,7.1
7215.0,-0.33,-0.06,6.37
7228.0,-0.63,0.49,5.41
7241.0,-0.93,0.31,5.51
7254.0,-0.28,-0.34,6.48
7266.0,0.61,-0.73,6.8
7279.0,1.22,-0.59,6.43
7292.0,1.52,-0.06,5.44
7305.0,1.5,0.49,4.12
7318.0,1.06,1.01,3.33
7331.0,0.45,0.61,4.0
7344.0,0.45,-0.0,5.02
7356.0,0.77,-0.19,5.56
7369.0,1.08,0.14,5.1
7382.0,1.25,0.79,3.96
7395.0,1.29,1.41,3.18
7408.0,1.16,1.69,3.15
7421.0,0.98,1.39,3.79
7434.0,0.82,0.91,4.43
7446.0,0.92,0.52,5.16
7459.0,1.12,0.16,5.74
7472.0,1.4,-0.06,6.02
7485.0,1.61,-0.25,6.09
7498.0,1.45,-0.46,6.16
7511.0,0.81,-0.4,6.17
7523.0,0.26,0.15,5.8
7536.0,-0.13,0.66,5.15
7549.0,-0.49,0.85,5.19
7562.0,-0.72,0.84,5.82
7575.0,-0.88,0.48,6.76
7588.0,-1.32,-0.38,8.18
7601.0,-1.16,-1.1,9.85
7614.0,-0.47,-1.55,11.36
7626.0,0.2,-1.62,11.79
7639.0,0.43,-1.65,11.98
7652.0,0.22,-1.82,12.48
7665.0,-0.11,-1.89,12.93
7678.0,-0.63,-2.08,13.41
7691.0,-0.31,-2.12,13.94
7704.0,0.73,-2.11,13.84
7716.0,2.03,-2.0,13.64
7729.0,2.91,-1.67,13.36
7742.0,2.56,-1.2,13.03
7755.0,1.64,-1.05,13.21
7768.0,0.31,-1.01,13.73
7781.0,-0.41,-1.16,14.25
7794.0,-0.19,-1.58,14.73
7806.0,0.87,-2.05,15.03
7819.0,2.01,-2.38,15.16
7832.0,2.45,-2.47,15.06
7845.0,2.07,-2.58,15.42
7858.0,1.17,-2.83,16.03
7871.0,0.4,-3.09,16.57
7884.0,0.13,-3.14,16.49
7896.0,0.31,-2.84,15.67
7909.0,0.56,-2.37,14.7
7922.0,0.79,-2.16,14.15
7935.0,0.9,-2.33,14.32
7948.0,0.77,-2.84,14.89
7961.0,0.81,-3.35,15.57
7974.0,0.87,-3.59,15.74
7987.0,0.61,-3.51,15.21
7999.0,0.46,-3.18,14.47
8012.0,0.59,-2.91,13.86
8025.0,1.0,-2.82,13.37
8038.0,1.4,-2.76,12.81
8051.0,1.44,-2.62,12.12
8064.0,0.92,-2.4,11.29
8077.0,0.13,-2.2,10.64
8089.0,-0.16,-2.27,10.67
8102.0,0.12,-2.34,10.44
8115.0,0.69,-2.14,9.71
8128.0,1.32,-1.88,8.92
8141.0,1.75,-1.54,8.23
8154.0,1.71,-1.11,7.43
8167.0,1.41,-0.73,6.72
8179.0,0.71,-0.55,6.33
8192.0,0.37,-0.81,6.66
8205.0,0.61,-1.21,6.93
8218.0,1.16,-1.31,6.98
8231.0,1.76,-1.18,6.48
8244.0,1.95,-0.79,5.8
8257.0,1.87,-0.44,5.06
8269.0,1.47,-0.1,4.78
8282.0,1.11,0.15,4.4
8295.0,0.79,0.28,3.96
8308.0,0.72,0.44,3.69
8321.0,0.75,0.55,3.56
8334.0,0.92,0.51,3.61
8346.0,1.13,0.4,3.96
8359.0,1.14,0.4,4.07
8372.0,1.13,0.59,3.93
8385.0,1.07,0.87,3.81
8398.0,0.76,1.0,3.87
8411.0,0.54,0.9,4.2
8424.0,0.43,0.7,4.67
8436.0,0.51,0.46,4.94
8449.0,0.72,0.04,5.53
8462.0,0.98,-0.41,6.25
8475.0,1.34,-0.81,6.74
8488.0,1.91,-1.13,7.31
8501.0,2.35,-1.06,7.41
8513.0,2.12,-0.73,6.9
8526.0,1.87,-0.54,6.71
8539.0,1.7,-0.75,7.02
8552.0,1.41,-1.13,8.19
8565.0,1.53,-1.51,9.42
8578.0,1.48,-1.51,9.97
8591.0,1.08,-1.06,9.76
8603.0,0.17,-0.71,9.18
8616.0,-0.55,-0.82,9.45
8629.0,-0.63,-1.33,10.37
8642.0,-0.2,-1.98,11.44
8655.0,0.39,-2.87,12.71
8668.0,1.23,-3.62,14.11
8681.0,2.04,-3.87,15.1
8694.0,2.05,-3.53,15.21
8706.0,1.36,-2.93,14.78
8719.0,0.57,-2.39,14.34
8732.0,0.08,-2.21,14.0
8745.0,0.37,-2.55,14.63
8758.0,1.01,-3.0,15.34
8771.0,1.33,-3.15,15.61
8784.0,1.32,-3.34,15.82
8796.0,1.06,-3.79,16.51
8809.0,0.88,-4.31,17.3
8822.0,1.06,-4.62,17.73
8835.0,1.32,-4.5,17.33
8848.0,1.27,-3.8,16.22
8861.0,0.84,-2.95,14.83
8874.0,0.37,-2.2,13.65
8886.0,0.17,-1.83,13.02
8899.0,0.47,-1.92,13.04
8912.0,0.82,-2.17,13.3
8925.0,0.97,-2.62,13.74
8938.0,1.01,-3.04,14.12
8951.0,1.07,-3.21,14.04
8964.0,0.75,-3.29,13.62
8976.0,0.46,-3.41,13.25
8989.0,0.4,-3.54,12.98
9002.0,0.62,-3.59,12.55
9015.0,0.83,-3.69,12.06
9028.0,0.99,-3.64,11.53
9041.0,0.95,-3.42,10.8
9054.0,1.18,-3.09,10.02
9066.0,1.21,-2.72,9.19
9079.0,0.96,-2.34,8.6
9092.0,0.59,-2.05,8.28
9105.0,0.33,-1.58,7.76
9118.0,0.0,-1.11,6.55
9131.0,0.49,-0.57,5.98
9144.0,0.77,-0.81,5.74
9156.0,0.89,-1.59,6.68
9169.0,1.24,-2.57,8.17
9182.0,1.71,-3.08,8.94
9195.0,2.0,-3.19,8.81
9208.0,1.7,-2.65,7.79
9221.0,1.1,-1.58,6.14
9234.0,1.2,-0.68,4.8
9246.0,1.45,-0.34,4.09
9259.0,1.44,-0.28,4.2
9272.0,1.37,-0.47,4.76
9285.0,1.31,-0.8,5.61
9298.0,1.28,-0.82,5.85
9311.0,1.21,-0.53,5.38
9324.0,1.18,-0.08,4.81
9336.0,0.94,0.37,4.1
9349.0,0.78,0.71,3.85
9362.0,0.86,0.82,3.9
9375.0,1.09,0.69,4.39
9388.0,1.2,0.46,4.89
9401.0,0.97,0.28,5.15
9413.0,0.6,0.2,5.15
9426.0,0.28,0.15,5.08
9439.0,0.07,-0.01,5.09
9452.0,-0.05,-0.27,5.26
9465.0,-0.04,-0.45,5.56
9478.0,0.26,-0.63,5.85
9491.0,0.74,-1.02,6.17
9503.0,1.01,-1.53,6.85
9516.0,1.01,-2.1,7.91
9529.0,1.42,-2.63,9.47
9542.0,2.1,-2.73,10.29
9555.0,2.08,-2.24,9.82
9568.0,1.69,-1.61,9.09
9581.0,1.21,-1.21,8.54
9593.0,0.84,-1.42,9.11
9606.0,0.63,-1.99,10.34
9619.0,0.92,-2.55,11.63
9632.0,1.4,-2.83,12.49
9645.0,1.89,-2.61,12.38
9658.0,1.77,-2.3,11.78
9671.0,1.26,-2.21,11.97
9683.0,0.59,-2.33,12.51
9696.0,0.36,-2.82,13.35
9709.0,0.76,-3.44,14.65
9722.0,1.35,-3.6,15.24
9735.0,1.41,-3.18,14.57
9748.0,1.01,-2.73,13.81
9761.0,0.77,-2.92,13.94
9773.0,0.92,-3.8,15.35
9786.0,1.26,-4.56,16.78
9799.0,1.31,-4.73,17.04
9812.0,1.03,-4.41,16.53
9825.0,0.72,-3.93,15.45
9838.0,0.96,-3.75,14.89
9851.0,1.31,-3.84,14.87
9864.0,1.45,-3.95,14.98
9876.0,1.3,-4.07,15.03
9889.0,0.98,-4.16,15.24
9902.0,0.61,-4.1,15.2
9915.0,0.27,-3.96,14.9
9928.0,0.13,-3.71,14.38
9941.0,0.2,-3.39,13.61
9954.0,0.46,-3.14,12.78
9966.0,0.96,-3.2,12.45
9979.0,1.2,-3.55,12.59
9992.0,1.3,-4.08,12.98
10005.0,1.16,-4.27,12.98
10018.0,0.97,-4.09,12.42
10031.0,0.83,-3.52,11.06
10044.0,0.92,-2.91,9.56
10056.0,1.23,-2.94,9.03
10069.0,2.11,-3.54,9.6
10082.0,3.14,-3.99,9.82
10095.0,3.53,-3.93,9.23
10108.0,2.48,-3.44,8.14
10121.0,0.28,-2.33,7.34
10134.0,-1.56,-1.49,6.31
10146.0,-2.3,-1.29,5.75
10159.0,-1.59,-2.11,6.99
10172.0,-0.03,-2.84,7.97
10185.0,1.33,-2.94,7.75
10198.0,2.05,-2.41,6.71
10211.0,1.96,-1.63,5.46
10224.0,1.34,-0.79,4.44
10236.0,0.47,-0.25,3.69
10249.0,-0.33,-0.31,3.79
10262.0,-0.24,-0.93,5.17
10275.0,0.37,-1.53,6.54
10288.0,0.89,-1.44,6.65
10301.0,1.24,-0.78,5.78
10314.0,1.47,0.03,4.78
10326.0,1.33,0.8,3.85
10339.0,0.81,1.43,3.14
10352.0,0.22,1.7,3.02
10365.0,-0.17,1.61,3.55
10378.0,-0.36,1.31,4.54
10391.0,-0.47,0.77,5.92
10404.0,-0.16,0.2,6.96
10416.0,0.31,-0.34,7.35
10429.0,0.88,-0.82,7.66
10442.0,1.4,-1.17,7.63
10455.0,1.84,-1.33,7.3
10468.0,1.85,-1.19,6.65
10481.0,1.54,-0.96,6.0
10494.0,1.07,-0.85,6.1
10506.0,1.09,-0.89,6.61
10519.0,1.51,-1.2,7.56
10532.0,1.91,-1.25,8.09
10545.0,1.53,-1.05,7.59
10558.0,0.63,-0.66,7.03
10571.0,-0.05,-0.57,6.98
10584.0,-0.62,-0.76,7.42
10597.0,-0.68,-1.19,7.93
10609.0,-0.04,-1.93,8.92
10622.0,0.69,-2.57,9.93
10635.0,0.91,-2.83,10.69
10648.0,0.49,-2.95,11.25
10661.0,-0.3,-3.18,12.06
10674.0,-1.24,-3.66,13.08
10687.0,-1.95,-4.36,14.47
10699.0,-1.85,-4.9,15.85
10712.0,-1.41,-4.7,15.7
10725.0,-1.31,-4.13,14.59
10738.0,-1.19,-3.6,13.63
10751.0,-0.99,-3.56,13.43
10764.0,-0.51,-3.99,14.27
10777.0,0.2,-4.67,15.32
10790.0,0.75,-5.0,15.96
10802.0,0.8,-4.86,15.76
10815.0,0.68,-4.48,15.09
10828.0,0.47,-4.0,14.35
10841.0,0.1,-3.71,13.97
10854.0,0.09,-3.69,14.1
10867.0,0.37,-3.76,14.27
10880.0,0.6,-3.7,14.13
10892.0,0.63,-3.55,13.85
10905.0,0.54,-3.36,13.7
10918.0,0.45,-3.37,13.75
10931.0,0.06,-3.51,13.9
10944.0,-0.3,-3.64,13.9
10957.0,-0.52,-3.48,13.47
10970.0,-0.36,-3.14,13.0
10982.0,-0.11,-2.84,12.26
10995.0,0.17,-2.7,11.88
11008.0,0.29,-2.7,11.51
11021.0,0.27,-2.91,11.56
11034.0,0.28,-3.36,11.7
11047.0,0.21,-3.8,11.86
11060.0,0.11,-4.11,11.78
11073.0,-0.1,-4.22,11.7
11085.0,-0.25,-4.33,11.44
11098.0,-0.38,-4.36,10.99
11111.0,-0.42,-4.16,10.45
11124.0,-0.31,-3.94,9.76
11137.0,-0.26,-3.86,8.97
11150.0,-0.13,-3.84,8.91
11163.0,0.07,-3.79,8.69
11175.0,0.48,-3.45,8.12
11188.0,0.86,-2.91,7.08
11201.0,0.96,-2.3,6.17
11214.0,0.83,-1.72,5.37
11227.0,0.46,-1.84,5.15
11240.0,0.51,-2.66,6.34
11253.0,0.82,-3.41,7.52
11265.0,1.03,-3.57,7.85
11278.0,1.26,-3.23,7.3
11291.0,1.13,-2.4,6.15
11304.0,0.76,-1.35,5.05
11317.0,0.41,-0.47,3.94
11330.0,0.08,0.21,3.21
11343.0,-0.11,0.6,2.63
11355.0,0.1,0.58,2.95
11368.0,0.77,0.09,3.92
11381.0,1.44,-0.33,4.81
11394.0,1.99,-0.46,5.26
11407.0,2.21,-0.31,5.39
11420.0,2.06,-0.01,5.32
11433.0,1.64,0.28,5.09
11445.0,0.96,0.43,4.76
11458.0,0.35,0.26,5.04
11471.0,0.19,-0.17,5.69
11484.0,0.4,-0.66,6.29
11497.0,0.9,-1.15,6.78
11510.0,1.29,-1.49,6.95
11523.0,1.42,-1.69,6.98
11535.0,1.22,-1.67,6.64
11548.0,0.54,-1.68,6.6
11561.0,-0.19,-1.63,7.05
11574.0,-0.38,-1.54,7.08
11587.0,-0.09,-1.7,7.12
11600.0,0.66,-2.18,7.82
11613.0,1.25,-2.68,8.78
11625.0,1.45,-2.85,9.07
11638.0,1.72,-2.78,9.16
11651.0,1.58,-2.42,8.89
11664.0,0.72,-2.5,9.65
11677.0,-0.32,-2.86,10.65
11690.0,-1.15,-3.68,11.99
11703.0,-0.93,-4.1,13.37
11716.0,0.22,-4.23,13.98
11728.0,1.26,-4.09,13.76
11741.0,1.66,-3.56,13.32
11754.0,1.0,-2.79,12.62
11767.0,0.17,-2.14,11.76
11780.0,-0.74,-1.76,11.16
11793.0,-1.1,-2.2,11.7
11806.0,-0.25,-3.34,13.88
11818.0,0.91,-4.42,15.99
11831.0,1.46,-5.03,17.36
11844.0,1.32,-5.07,17.79
11857.0,0.71,-4.73,17.42
11870.0,0.18,-4.31,16.78
11883.0,-0.14,-4.14,16.37
11896.0,0.0,-4.14,16.27
11908.0,0.51,-4.14,15.93
11921.0,0.84,-3.91,15.19
11934.0,0.91,-3.58,14.34
11947.0,0.23,-3.34,13.73
11960.0,-0.1,-3.28,13.71
11973.0,-0.02,-3.47,13.82
11986.0,0.28,-3.81,14.08
11999.0,0.59,-4.26,14.43
12011.0,0.97,-4.67,14.91
12024.0,1.16,-4.92,15.08
12037.0,1.22,-4.85,14.78
12050.0,0.94,-4.39,13.96
12063.0,0.53,-3.64,12.72
12076.0,0.38,-3.08,11.69
12089.0,0.52,-2.96,11.38
12101.0,0.44,-3.14,11.47
12114.0,0.43,-3.1,11.15
12127.0,0.29,-2.84,10.33
12140.0,0.25,-2.3,9.45
12153.0,0.05,-1.82,8.07
12166.0,0.21,-1.67,7.87
12179.0,0.68,-2.02,7.91
12191.0,1.3,-2.37,8.21
12204.0,1.48,-2.49,8.16
12217.0,1.45,-2.45,7.73
12230.0,1.5,-2.19,7.49
12243.0,1.27,-1.87,6.87
12256.0,1.02,-1.41,6.26
12269.0,0.84,-0.87,5.66
12281.0,0.95,-0.45,4.85
12294.0,1.25,-0.13,4.23
12307.0,1.52,0.2,3.76
12320.0,1.6,0.38,3.65
12333.0,1.37,0.45,3.66
12346.0,1.03,0.63,3.71
12358.0,0.73,0.72,3.72
12371.0,0.57,0.66,3.77
12384.0,0.64,0.46,3.95
12397.0,0.83,0.11,4.34
12410.0,1.17,-0.07,4.97
12423.0,1.44,0.04,5.58
12436.0,1.3,0.35,5.52
12448.0,0.86,0.74,4.92
12461.0,0.45,1.08,4.51
12474.0,0.09,1.17,4.49
12487.0,-0.03,0.85,5.3
12500.0,0.14,0.46,5.57
12513.0,0.41,-0.06,6.05
12525.0,0.54,-0.54,6.62
12538.0,0.61,-0.85,7.03
12551.0,0.84,-1.01,7.41
12564.0,0.96,-1.18,7.65
12577.0,0.94,-1.58,8.43
12590.0,0.75,-2.02,9.7
12603.0,0.63,-2.41,10.61
12615.0,0.75,-2.52,11.37
12628.0,0.82,-2.34,11.67
12641.0,0.92,-1.55,10.82
12654.0,0.9,-0.37,9.17
12667.0,0.66,0.4,8.03
12680.0,-0.9,0.02,7.89
12693.0,-1.19,-1.07,9.98
12705.0,0.02,-2.53,13.05
12718.0,1.31,-3.37,15.22
12731.0,1.99,-3.27,15.49
12744.0,1.97,-2.34,13.97
12757.0,0.65,-0.99,12.56
12770.0,-0.97,-0.42,12.1
12783.0,-1.56,-0.44,12.69
12796.0,-0.86,-0.98,13.66
12808.0,0.2,-1.49,14.37
12821.0,0.8,-1.45,14.31
12834.0,0.54,-0.86,13.36
12847.0,-0.39,-0.17,12.33
