timestamp,accX,accY,accZ
2.0,0.49,-1.81,7.44
15.0,0.57,-1.04,5.27
28.0,0.83,-0.65,5.36
41.0,0.98,-0.14,4.93
54.0,0.99,0.24,4.59
66.0,0.74,0.37,4.49
79.0,0.44,0.37,4.61
92.0,0.15,0.39,4.74
105.0,0.08,0.49,4.83
118.0,0.36,0.78,4.56
131.0,0.69,1.18,4.1
144.0,0.96,1.6,3.6
156.0,0.92,1.79,3.2
169.0,1.11,1.71,3.17
182.0,1.19,1.4,3.73
195.0,0.89,0.54,4.86
208.0,0.65,-0.22,5.88
221.0,0.23,-0.81,6.45
233.0,-0.31,-0.87,6.24
246.0,-0.7,-0.52,5.63
259.0,-0.73,-0.16,5.19
272.0,-0.33,0.15,5.21
285.0,0.39,0.34,6.0
298.0,1.14,0.19,7.0
311.0,1.65,-0.05,7.83
323.0,1.67,-0.25,8.07
336.0,1.15,-0.32,7.86
349.0,0.6,-0.09,7.7
362.0,0.46,0.18,7.9
375.0,0.75,0.31,8.26
388.0,1.16,0.31,8.51
401.0,1.4,0.07,8.95
413.0,1.4,-0.37,9.43
426.0,0.93,-0.61,9.48
439.0,0.41,-0.65,9.17
452.0,0.12,-0.59,9.26
465.0,0.43,-0.87,10.07
478.0,1.04,-1.39,11.26
491.0,1.31,-1.88,11.86
503.0,0.98,-1.98,11.68
516.0,0.43,-1.83,11.44
529.0,0.46,-1.7,11.75
542.0,0.69,-1.97,12.68
555.0,1.31,-2.27,13.63
568.0,1.5,-2.26,13.59
581.0,1.16,-2.2,13.03
593.0,0.47,-2.11,12.47
606.0,-0.23,-2.05,12.07
619.0,-0.48,-2.04,12.07
632.0,-0.4,-1.94,12.07
645.0,0.05,-1.81,12.1
658.0,0.68,-1.7,12.28
671.0,0.94,-1.62,12.33
683.0,0.97,-1.54,12.1
696.0,0.62,-1.41,11.4
709.0,0.2,-1.24,10.52
722.0,-0.05,-2.5,18.27
735.0,-1.23,-6.24,19.61
748.0,-0.95,-5.92,16.98
761.0,-1.13,-2.68,11.16
774.0,-0.51,0.31,6.93
786.0,-0.35,0.36,7.51
799.0,-0.24,-0.78,9.52
812.0,-0.52,-1.3,10.84
825.0,-0.26,-1.71,12.48
838.0,0.24,-2.43,14.28
851.0,0.6,-3.05,15.6
864.0,0.4,-3.37,16.16
876.0,0.0,-3.41,15.89
889.0,-0.37,-3.17,15.4
902.0,-0.43,-2.75,14.8
915.0,-0.21,-2.27,14.06
928.0,0.94,-2.25,14.61
941.0,2.05,-2.49,15.72
954.0,2.46,-2.88,16.36
967.0,1.87,-3.26,15.83
979.0,0.84,-3.4,14.57
992.0,0.05,-3.05,12.88
1005.0,-0.28,-2.39,11.06
1018.0,-0.16,-1.51,9.4
1031.0,0.23,-0.79,8.21
1044.0,0.62,-0.38,7.47
1057.0,0.81,-0.06,6.8
1069.0,0.73,0.17,6.39
1082.0,0.34,0.17,6.18
1095.0,0.03,-0.05,6.17
1108.0,-0.06,-0.27,6.19
1121.0,0.15,-0.23,5.88
1134.0,0.27,-0.07,5.5
1147.0,0.21,0.03,5.22
1159.0,0.19,0.12,5.15
1172.0,0.3,0.23,5.13
1185.0,0.42,0.29,5.11
1198.0,0.47,0.35,4.89
1211.0,0.46,0.45,4.47
1224.0,0.36,0.56,3.84
1236.0,0.3,0.7,3.23
1249.0,0.36,0.9,2.75
1262.0,0.44,1.16,2.47
1275.0,0.48,1.38,2.26
1288.0,0.39,1.41,2.57
1301.0,0.27,1.23,3.22
1313.0,0.2,1.03,4.01
1326.0,0.2,0.81,4.81
1339.0,0.42,0.7,5.36
1352.0,0.78,0.62,6.0
1365.0,1.16,0.38,6.65
1378.0,1.32,-0.02,7.61
1391.0,1.21,-0.6,8.55
1403.0,0.9,-1.07,9.18
1416.0,0.63,-1.33,9.49
1429.0,0.48,-1.44,9.47
1442.0,0.49,-1.52,9.31
1455.0,0.22,-1.47,9.08
1468.0,0.06,-1.22,9.02
1481.0,0.56,-1.21,9.88
1493.0,1.23,-1.36,11.2
1506.0,1.72,-1.85,12.33
1519.0,1.65,-2.55,12.97
1532.0,0.98,-3.06,13.06
1545.0,0.23,-2.98,12.56
1558.0,-0.47,-2.45,11.32
1571.0,-0.41,-1.81,10.4
1583.0,0.44,-1.43,10.57
1596.0,1.37,-1.64,11.5
1609.0,1.82,-2.36,12.84
1622.0,1.43,-2.93,13.73
1635.0,0.57,-2.91,13.45
1648.0,-0.25,-2.67,12.64
1661.0,-0.52,-2.37,11.9
1673.0,-0.09,-2.18,11.58
1686.0,0.45,-2.12,11.86
1699.0,0.83,-2.07,12.32
1712.0,0.93,-1.91,12.37
1725.0,0.75,-1.77,12.28
1738.0,0.47,-1.92,12.53
1751.0,0.27,-2.39,13.06
1764.0,0.15,-2.76,13.47
1776.0,0.1,-2.94,13.64
1789.0,0.1,-2.95,13.56
1802.0,0.13,-2.98,13.5
1815.0,0.14,-2.93,13.35
1828.0,0.15,-2.93,13.22
1841.0,0.17,-2.91,13.21
1854.0,0.2,-2.81,13.13
1866.0,0.31,-2.58,12.93
1879.0,0.46,-2.35,12.9
1892.0,0.6,-2.21,12.88
1905.0,0.74,-2.21,13.48
1918.0,0.86,-2.39,14.2
1931.0,0.83,-2.55,14.62
1944.0,0.67,-2.59,14.36
1956.0,0.42,-2.6,14.08
1969.0,0.46,-2.71,14.02
1982.0,0.78,-2.77,14.21
1995.0,1.06,-2.68,13.84
2008.0,0.89,-2.47,12.92
2021.0,0.65,-2.1,11.61
2034.0,0.6,-1.83,10.71
2046.0,0.69,-1.66,10.42
2059.0,0.92,-1.62,10.32
2072.0,1.02,-1.6,10.36
2085.0,0.79,-1.74,10.31
2098.0,0.5,-1.81,10.06
2111.0,0.32,-1.93,9.86
2124.0,0.35,-1.93,9.53
2136.0,0.42,-1.62,8.65
2149.0,0.34,-1.09,7.36
2162.0,0.1,-0.49,5.88
2175.0,-0.21,0.1,4.76
2188.0,-0.28,0.54,4.13
2201.0,-0.15,0.84,3.83
2214.0,0.02,1.01,3.71
2226.0,0.2,1.1,3.69
2239.0,0.33,1.14,3.92
2252.0,0.46,1.12,4.13
2265.0,0.54,1.06,4.33
2278.0,0.65,0.91,4.43
2291.0,0.61,0.83,4.41
2303.0,0.49,0.78,4.12
2316.0,0.28,0.78,3.83
2329.0,0.13,0.8,3.65
2342.0,0.05,0.78,3.75
2355.0,-0.02,0.71,4.0
2368.0,0.0,0.62,4.38
2380.0,0.17,0.57,4.89
2393.0,0.36,0.51,5.45
2406.0,0.53,0.27,6.0
2419.0,0.62,-0.09,6.63
2432.0,0.56,-0.38,7.22
2445.0,0.37,-0.5,7.36
2458.0,0.32,-0.64,7.37
2470.0,0.56,-0.91,7.8
2483.0,0.56,-1.35,8.2
2496.0,0.14,-1.65,8.58
2509.0,-0.21,-1.62,8.85
2522.0,-0.13,-1.64,9.24
2535.0,0.32,-1.75,9.9
2548.0,0.78,-2.0,10.31
2560.0,0.67,-2.32,10.39
2573.0,0.22,-2.4,10.56
2586.0,0.08,-2.07,10.71
2599.0,0.46,-2.02,11.27
2612.0,1.06,-2.14,12.27
2625.0,1.11,-2.8,12.88
2638.0,0.68,-3.37,13.26
2650.0,0.01,-3.62,13.29
2663.0,-0.1,-3.24,13.06
2676.0,0.51,-2.58,13.25
2689.0,1.28,-2.09,13.82
2702.0,1.6,-1.99,14.18
2715.0,1.34,-2.25,14.29
2728.0,0.68,-2.67,14.16
2741.0,-0.04,-3.01,13.69
2753.0,-0.78,-3.02,13.19
2766.0,-1.12,-2.73,12.63
2779.0,-0.81,-2.43,12.56
2792.0,-0.18,-2.32,12.73
2805.0,0.13,-2.25,12.64
2818.0,0.09,-2.16,12.33
2831.0,0.12,-2.22,12.57
2843.0,0.17,-2.42,13.08
2856.0,0.21,-2.71,13.57
2869.0,0.26,-2.99,13.7
2882.0,0.17,-3.11,13.65
2895.0,0.2,-3.06,13.56
2908.0,0.31,-2.87,13.3
2921.0,0.5,-2.61,13.05
2933.0,0.66,-2.54,13.06
2946.0,0.59,-2.72,13.46
2959.0,0.44,-2.91,13.84
2972.0,0.36,-2.97,14.14
2985.0,0.33,-3.02,14.15
2998.0,0.2,-3.04,14.07
3011.0,0.35,-2.81,13.65
3023.0,0.74,-2.4,12.78
3036.0,1.12,-1.97,11.52
3049.0,1.11,-1.87,11.11
3062.0,0.74,-2.29,11.6
3075.0,0.38,-2.75,12.03
3088.0,0.38,-2.98,12.45
3101.0,0.91,-3.0,12.64
3113.0,1.51,-2.94,12.25
3126.0,1.76,-2.78,11.45
3139.0,1.72,-2.62,10.55
3152.0,1.38,-2.52,9.63
3165.0,0.99,-2.41,8.98
3178.0,0.66,-2.11,8.2
3191.0,0.52,-1.56,7.55
3203.0,0.46,-1.03,7.04
3216.0,0.42,-0.71,6.64
3229.0,0.29,-0.39,6.04
3242.0,0.25,0.31,4.96
3255.0,0.29,0.89,4.03
3268.0,0.38,1.14,3.39
3281.0,0.21,1.07,3.45
3293.0,-0.06,0.81,3.86
3306.0,-0.17,0.65,4.11
3319.0,-0.09,0.48,4.27
3332.0,0.09,0.29,4.45
3345.0,0.25,0.04,4.45
3358.0,0.32,-0.14,4.27
3371.0,0.26,-0.28,4.07
3383.0,0.06,-0.28,3.9
3396.0,-0.28,-0.23,3.86
3409.0,-0.65,-0.12,3.91
3422.0,-0.7,0.08,4.06
3435.0,-0.26,0.2,4.42
3448.0,0.33,0.27,4.93
3461.0,0.92,0.08,5.65
3473.0,1.47,-0.32,6.64
3486.0,1.64,-0.82,7.65
3499.0,1.12,-0.85,7.78
3512.0,0.4,-0.41,6.7
3525.0,-0.47,0.02,5.52
3538.0,-0.58,0.03,5.55
3551.0,0.32,-0.61,6.99
3563.0,1.15,-1.39,8.85
3576.0,1.32,-2.01,10.53
3589.0,1.12,-1.95,11.21
3602.0,0.63,-1.31,10.6
3615.0,0.12,-0.71,9.78
3628.0,-0.31,-0.52,9.1
3641.0,-0.11,-0.89,9.04
3653.0,0.51,-1.7,9.94
3666.0,0.95,-2.81,11.59
3679.0,0.7,-3.61,13.09
3692.0,0.31,-3.92,13.69
3705.0,-0.16,-4.04,13.71
3718.0,-0.29,-4.11,13.66
3731.0,-0.15,-4.27,13.85
3744.0,0.17,-4.21,14.05
3756.0,0.53,-3.97,14.1
3769.0,0.8,-3.52,13.78
3782.0,0.85,-3.08,13.16
3795.0,0.65,-2.86,12.58
3808.0,0.28,-2.67,12.43
3821.0,-0.06,-2.68,12.62
3834.0,-0.2,-2.73,12.88
3846.0,-0.22,-2.75,13.02
3859.0,-0.19,-2.71,13.01
3872.0,-0.11,-2.56,12.82
3885.0,0.01,-2.44,12.89
3898.0,0.24,-2.47,13.1
3911.0,0.47,-2.7,13.68
3924.0,0.71,-3.0,14.25
3936.0,0.71,-3.36,14.62
3949.0,0.55,-3.62,14.81
3962.0,0.56,-3.69,14.84
3975.0,0.69,-3.62,14.77
3988.0,0.74,-3.5,14.81
4001.0,0.83,-3.44,14.99
4014.0,0.88,-3.51,15.38
4026.0,0.89,-3.61,15.54
4039.0,0.94,-3.58,15.12
4052.0,0.96,-3.38,14.44
4065.0,1.19,-3.13,14.06
4078.0,1.37,-3.21,13.96
4091.0,1.35,-3.43,13.8
4104.0,1.22,-3.36,12.95
4116.0,0.76,-3.04,11.68
4129.0,0.24,-2.84,10.55
4142.0,-0.06,-2.79,9.83
4155.0,-0.16,-2.61,9.29
4168.0,-0.02,-2.27,8.78
4181.0,0.07,-1.93,8.25
4194.0,0.23,-1.66,7.98
4207.0,0.37,-1.37,7.67
4219.0,0.29,-1.0,7.21
4232.0,0.24,-0.63,6.72
4245.0,0.05,-0.41,6.33
4258.0,-0.02,-0.33,6.13
4271.0,0.02,-0.27,6.16
4284.0,0.09,-0.29,6.39
4297.0,0.14,-0.23,6.48
4309.0,0.14,-0.06,6.35
4322.0,0.02,0.11,5.77
4335.0,-0.1,0.28,5.09
4348.0,-0.08,0.43,4.75
4361.0,0.06,0.54,4.51
4374.0,0.27,0.53,4.41
4387.0,0.29,0.37,4.57
4399.0,0.24,0.19,4.89
4412.0,0.13,-0.03,5.36
4425.0,-0.0,-0.1,5.62
4438.0,-0.01,-0.01,5.65
4451.0,0.1,0.25,5.47
4464.0,0.18,0.58,5.12
4476.0,0.34,0.87,4.81
4489.0,0.48,1.0,4.74
4502.0,0.46,0.94,5.15
4515.0,0.44,0.57,6.26
4528.0,0.24,-0.03,7.64
4541.0,0.02,-0.7,8.49
4554.0,-0.28,-0.92,8.2
4566.0,-0.56,-0.54,7.2
4579.0,-0.54,0.05,6.43
4592.0,-0.02,0.32,6.83
4605.0,0.64,0.14,7.75
4618.0,1.25,-0.39,8.69
4631.0,1.44,-1.16,9.37
4644.0,0.79,-1.56,9.65
4656.0,-0.06,-1.35,9.56
4669.0,-0.12,-0.91,9.4
4682.0,0.29,-0.59,8.99
4695.0,1.08,-0.25,8.89
4708.0,1.99,-0.33,9.46
4721.0,2.37,-0.9,10.51
4734.0,1.82,-1.44,11.3
4746.0,1.09,-1.56,11.48
4759.0,0.54,-1.63,11.67
4772.0,0.46,-1.83,12.01
4785.0,0.87,-2.23,12.2
4798.0,1.22,-2.63,12.38
4811.0,1.02,-2.71,12.69
4824.0,0.75,-2.33,12.53
4836.0,0.66,-2.03,12.47
4849.0,0.81,-2.03,12.69
4862.0,1.1,-2.27,12.8
4875.0,1.13,-2.46,12.76
4888.0,0.83,-2.48,12.66
4901.0,0.67,-2.32,12.33
4914.0,0.59,-2.15,12.16
4926.0,0.62,-2.17,12.15
4939.0,0.59,-2.35,12.04
4952.0,0.34,-2.53,11.95
4965.0,0.06,-2.67,12.08
4978.0,-0.02,-2.77,12.48
4991.0,0.19,-2.81,13.04
5004.0,0.55,-2.87,13.5
5017.0,0.88,-2.83,13.71
5029.0,1.04,-2.67,13.55
5042.0,1.12,-2.44,13.27
5055.0,1.13,-2.38,13.24
5068.0,1.12,-2.48,13.66
5081.0,1.0,-2.88,14.44
5094.0,0.8,-3.46,15.13
5107.0,0.54,-3.79,15.53
5119.0,0.42,-3.76,15.44
5132.0,0.42,-3.47,14.77
5145.0,0.59,-3.06,14.14
5158.0,0.7,-2.81,13.84
5171.0,0.46,-2.79,13.55
5184.0,0.19,-2.78,12.95
5197.0,0.37,-2.56,12.14
5209.0,0.96,-2.08,11.6
5222.0,1.57,-1.63,11.21
5235.0,2.01,-1.47,11.16
5248.0,1.86,-1.45,10.88
5261.0,1.73,-1.78,10.52
5274.0,1.41,-2.15,10.81
5287.0,1.18,-2.15,10.33
5299.0,1.22,-1.9,9.43
5312.0,1.29,-1.58,8.88
5325.0,1.37,-1.31,8.42
5338.0,1.33,-1.18,8.18
5351.0,1.15,-1.07,8.06
5364.0,0.78,-1.0,8.03
5377.0,0.57,-0.79,7.73
5389.0,0.49,-0.44,7.24
5402.0,0.58,-0.05,6.7
5415.0,0.74,0.29,6.1
5428.0,0.78,0.54,5.68
5441.0,0.76,0.69,5.34
5454.0,0.72,0.79,5.04
5466.0,0.62,0.75,5.13
5479.0,0.59,0.63,5.27
5492.0,0.61,0.6,5.38
5505.0,0.71,0.65,5.35
5518.0,0.91,0.71,5.06
5531.0,0.94,0.7,5.0
5544.0,0.88,0.56,5.06
5556.0,0.65,0.43,5.09
5569.0,0.42,0.56,5.02
5582.0,0.25,0.76,4.71
5595.0,0.14,0.89,4.42
5608.0,0.16,0.84,4.69
5621.0,0.4,0.74,5.19
5633.0,0.72,0.69,5.78
5646.0,1.02,0.58,6.65
5659.0,1.23,0.37,7.24
5672.0,1.32,0.17,7.5
5685.0,1.17,0.02,7.42
5698.0,0.6,-0.12,7.22
5710.0,0.57,-0.28,7.46
5723.0,1.03,-0.5,8.03
5736.0,1.5,-0.62,8.47
5749.0,1.67,-0.64,8.87
5762.0,1.54,-0.65,9.24
5775.0,1.29,-0.68,9.43
5788.0,1.01,-0.95,9.55
5800.0,0.76,-1.2,9.11
5813.0,0.67,-1.58,8.92
5826.0,0.87,-1.92,10.17
5839.0,1.1,-2.27,11.66
5852.0,0.79,-2.46,12.28
5865.0,-0.01,-2.48,12.06
5878.0,-0.69,-2.43,11.56
5891.0,-0.68,-2.2,11.2
5903.0,0.21,-2.04,11.35
5916.0,1.5,-2.03,11.97
5929.0,1.98,-2.38,12.93
5942.0,2.03,-2.62,13.68
5955.0,1.71,-2.82,14.29
5968.0,1.21,-2.87,14.12
5981.0,0.88,-2.79,13.57
5993.0,0.86,-2.63,13.27
6006.0,1.01,-2.6,13.55
6019.0,1.11,-2.58,13.96
6032.0,1.06,-2.54,14.01
6045.0,0.95,-2.45,13.72
6058.0,0.87,-2.44,13.48
6071.0,0.72,-2.46,13.12
6083.0,0.53,-2.43,12.65
6096.0,0.43,-2.27,12.31
6109.0,0.4,-2.06,12.04
6122.0,0.47,-1.99,12.09
6135.0,0.72,-2.23,12.91
6148.0,0.93,-2.69,13.91
6161.0,0.94,-3.06,14.54
6173.0,0.93,-3.23,14.82
6186.0,0.82,-3.2,14.8
6199.0,0.9,-3.02,14.6
6212.0,1.03,-2.93,14.36
6225.0,1.09,-2.88,14.14
6238.0,1.05,-2.9,13.86
6251.0,1.03,-2.98,13.73
6263.0,0.94,-3.1,13.97
6276.0,0.81,-3.05,13.69
6289.0,0.63,-2.76,12.81
6302.0,0.53,-2.46,12.02
6315.0,0.63,-2.26,11.3
6328.0,0.78,-2.11,11.02
6341.0,0.88,-1.92,10.69
6353.0,0.88,-1.66,10.32
6366.0,0.9,-1.4,9.85
6379.0,0.75,-1.25,9.29
6392.0,0.56,-1.26,8.89
6405.0,0.35,-1.26,8.52
6418.0,0.22,-1.21,8.18
6431.0,0.18,-0.93,7.71
6443.0,0.38,-0.44,6.9
6456.0,0.72,0.14,6.12
6469.0,0.93,0.54,5.46
6482.0,0.95,0.76,5.01
6495.0,0.96,0.89,4.57
6508.0,0.69,0.93,4.53
6520.0,0.49,0.85,4.66
6533.0,0.31,0.64,4.9
6546.0,0.11,0.46,5.02
6559.0,0.05,0.37,5.05
6572.0,-0.02,0.28,4.99
6585.0,-0.05,0.17,4.74
6598.0,-0.15,0.12,4.52
6610.0,-0.09,0.3,4.34
6623.0,0.01,0.57,4.08
6636.0,0.03,0.75,4.11
6649.0,-0.05,0.95,4.07
6662.0,-0.1,1.22,3.95
6675.0,0.08,1.45,4.03
6688.0,0.28,1.41,4.59
6700.0,0.61,1.12,5.47
6713.0,0.94,0.68,6.59
6726.0,1.11,0.26,7.61
6739.0,0.93,-0.02,8.1
6752.0,0.66,0.1,7.69
6765.0,0.37,0.35,7.19
6777.0,0.51,0.17,7.51
6790.0,0.99,-0.48,8.6
6803.0,1.5,-1.23,10.11
6816.0,1.57,-1.64,11.1
6829.0,1.34,-1.62,11.25
6842.0,0.81,-1.18,10.68
6855.0,0.49,-0.95,10.16
6867.0,0.71,-1.09,10.26
6880.0,1.46,-1.5,10.81
6893.0,1.91,-2.0,11.57
6906.0,1.77,-2.36,12.16
6919.0,1.28,-2.38,12.34
6932.0,0.66,-2.21,11.85
6945.0,0.03,-1.94,11.06
6957.0,0.12,-1.84,10.93
6970.0,0.89,-2.05,11.57
6983.0,1.43,-2.54,12.47
6996.0,1.36,-2.88,13.25
7009.0,1.09,-2.78,13.27
7022.0,0.75,-2.52,12.66
7035.0,0.56,-2.25,11.98
7047.0,0.55,-1.93,11.52
7060.0,0.81,-1.71,11.67
7073.0,1.17,-1.79,12.37
7086.0,1.34,-2.11,13.1
7099.0,1.15,-2.43,13.56
7112.0,0.72,-2.42,13.29
7125.0,0.53,-2.34,12.79
7137.0,0.71,-2.33,12.75
7150.0,1.01,-2.42,13.07
7163.0,1.15,-2.57,13.4
7176.0,1.05,-2.78,13.71
7189.0,0.83,-3.04,13.98
7202.0,0.73,-3.08,14.0
7215.0,0.68,-2.9,13.97
7227.0,0.86,-2.73,13.88
7240.0,1.1,-2.68,13.84
7253.0,1.31,-2.68,13.92
7266.0,1.44,-2.72,14.18
7279.0,1.49,-2.74,14.32
7292.0,1.36,-2.7,14.15
7305.0,1.05,-2.63,13.64
7317.0,0.76,-2.52,13.12
7330.0,0.74,-2.4,12.68
7343.0,0.86,-2.14,12.16
7356.0,1.1,-1.8,11.56
7369.0,1.36,-1.46,10.97
7382.0,1.6,-1.36,11.0
7395.0,1.58,-1.93,11.86
7407.0,1.4,-2.81,12.87
7420.0,0.94,-3.32,12.95
7433.0,0.5,-3.09,11.98
7446.0,0.36,-2.54,10.83
7459.0,0.54,-1.85,9.6
7472.0,0.81,-1.25,8.62
7485.0,0.86,-0.82,7.85
7497.0,0.62,-0.47,7.17
7510.0,0.5,-0.1,6.51
7523.0,0.58,0.34,5.96
7536.0,0.63,0.54,5.89
7549.0,0.54,0.44,6.46
7562.0,0.34,-0.02,7.54
7575.0,0.05,-0.56,8.13
7587.0,-0.02,-0.52,7.59
7600.0,0.07,0.25,5.97
7613.0,0.18,1.27,3.95
7626.0,0.11,1.97,3.75
7639.0,0.54,2.11,3.85
7652.0,0.4,1.9,3.72
7665.0,0.06,1.45,3.68
7677.0,-0.31,0.88,4.48
7690.0,-0.58,0.28,5.51
7703.0,-0.73,-0.02,6.07
7716.0,-0.76,0.14,5.99
7729.0,-0.69,0.71,5.26
7742.0,-0.47,1.37,4.45
7755.0,-0.23,1.83,4.09
7767.0,0.11,2.01,4.33
7780.0,0.49,1.86,5.2
7793.0,0.92,1.55,6.2
7806.0,1.33,1.13,7.2
7819.0,1.39,0.73,7.97
7832.0,1.32,0.48,8.49
7844.0,1.05,0.23,8.71
7857.0,0.77,-0.08,8.47
7870.0,0.63,-0.41,8.11
7883.0,0.45,-0.73,8.01
7896.0,0.31,-1.04,8.71
7909.0,0.34,-1.1,9.31
7922.0,0.38,-1.13,9.67
7934.0,0.39,-1.39,9.88
7947.0,0.48,-1.92,10.32
7960.0,0.42,-2.54,10.72
7973.0,0.1,-2.72,10.92
7986.0,-0.19,-2.43,10.88
7999.0,-0.15,-1.89,10.76
8012.0,-0.05,-1.57,10.52
8025.0,0.35,-1.39,10.32
8037.0,0.88,-1.31,10.25
8050.0,1.05,-1.63,10.82
8063.0,0.72,-2.15,11.7
8076.0,0.26,-2.53,12.53
8089.0,-0.13,-2.61,12.71
8102.0,-0.23,-2.6,12.63
8115.0,0.03,-2.48,12.43
8127.0,0.13,-2.31,12.19
8140.0,0.16,-2.14,11.96
8153.0,0.12,-2.09,11.77
8166.0,-0.0,-2.15,11.5
8179.0,-0.17,-2.23,11.14
8192.0,-0.38,-2.03,10.73
8205.0,-0.45,-1.9,10.73
8217.0,0.01,-1.92,11.34
8230.0,0.51,-2.18,12.24
8243.0,0.68,-2.51,12.9
8256.0,0.56,-2.7,13.22
8269.0,0.23,-2.89,13.41
8282.0,0.01,-3.02,13.44
8295.0,0.07,-3.09,13.54
8307.0,0.2,-3.23,13.8
8320.0,0.2,-3.44,14.23
8333.0,0.11,-3.69,14.59
8346.0,-0.08,-3.74,14.79
8359.0,-0.19,-3.58,14.55
8372.0,-0.1,-3.39,14.14
8385.0,0.05,-3.22,13.99
8398.0,0.03,-3.15,14.15
8410.0,0.07,-3.08,14.26
8423.0,0.18,-2.91,14.08
8436.0,0.3,-2.78,13.92
8449.0,0.39,-2.67,13.78
8462.0,0.31,-2.51,13.38
8475.0,0.32,-2.31,12.88
8488.0,0.49,-2.11,12.31
8500.0,0.7,-1.88,11.83
8513.0,0.86,-1.77,11.46
8526.0,0.86,-1.81,11.31
8539.0,0.8,-1.88,11.16
8552.0,0.72,-1.85,10.71
8565.0,0.63,-1.69,10.1
8578.0,0.69,-1.47,9.56
8590.0,0.7,-1.27,9.03
8603.0,0.66,-1.11,8.54
8616.0,0.55,-1.03,8.12
8629.0,0.33,-1.05,7.84
8642.0,-0.0,-1.11,7.67
8655.0,-0.22,-1.05,7.49
8668.0,-0.06,-0.81,7.38
8680.0,0.3,-0.45,6.97
8693.0,0.52,-0.14,6.46
8706.0,0.53,0.03,6.08
8719.0,0.29,0.18,5.57
8732.0,-0.09,0.26,5.06
8745.0,-0.27,0.44,4.72
8758.0,-0.16,0.52,4.58
8770.0,0.0,0.46,4.75
8783.0,0.23,0.35,5.12
8796.0,0.38,0.21,5.39
8809.0,0.43,0.01,5.68
8822.0,0.39,-0.22,5.86
8835.0,0.31,-0.25,5.66
8848.0,0.18,-0.01,5.24
8860.0,0.15,0.49,4.75
8873.0,0.27,0.93,4.33
8886.0,0.41,1.12,4.25
8899.0,0.42,1.05,4.5
8912.0,0.42,0.75,5.15
8925.0,0.31,0.33,6.17
8937.0,0.2,-0.03,7.24
8950.0,0.23,-0.35,8.01
8963.0,0.35,-0.52,8.16
8976.0,0.53,-0.58,7.81
8989.0,0.63,-0.55,7.36
9002.0,0.71,-0.44,7.44
9015.0,0.84,-0.63,8.21
9027.0,0.88,-1.14,9.15
9040.0,0.64,-1.87,10.09
9053.0,0.19,-2.43,10.46
9066.0,-0.49,-2.7,10.42
9079.0,-0.63,-2.53,10.35
9092.0,-0.1,-2.29,10.43
9105.0,0.71,-2.14,10.76
9117.0,1.47,-2.17,11.21
9130.0,1.67,-2.31,11.7
9143.0,1.48,-2.33,11.82
9156.0,1.01,-2.37,11.6
9169.0,0.45,-2.53,11.37
9182.0,0.19,-2.68,11.2
9195.0,0.14,-2.78,11.1
9207.0,0.21,-2.68,11.34
9220.0,0.56,-2.49,11.8
9233.0,0.87,-2.54,12.3
9246.0,0.99,-2.81,12.72
9259.0,0.81,-3.16,12.77
9272.0,0.38,-3.37,12.62
9285.0,-0.19,-3.4,12.17
9298.0,-0.6,-3.2,11.64
9310.0,-0.44,-2.89,11.43
9323.0,0.2,-2.72,11.49
9336.0,0.8,-2.68,11.63
9349.0,1.01,-2.76,11.59
9362.0,0.77,-2.89,11.68
9375.0,0.54,-2.98,11.79
9388.0,0.52,-2.89,11.74
9400.0,0.64,-2.83,11.63
9413.0,0.83,-2.8,11.76
9426.0,0.99,-2.95,12.33
9439.0,1.03,-3.26,13.08
9452.0,0.95,-3.6,13.51
9465.0,0.81,-3.76,13.59
9478.0,0.61,-3.79,13.58
9490.0,0.42,-3.83,13.77
9503.0,0.42,-3.84,14.03
9516.0,0.62,-3.73,14.11
9529.0,0.94,-3.54,14.09
9542.0,1.1,-3.32,13.98
9555.0,0.99,-3.21,13.94
9568.0,0.74,-3.24,13.98
9580.0,0.43,-3.34,13.97
9593.0,0.31,-3.36,13.81
9606.0,0.35,-3.2,13.44
9619.0,0.45,-2.75,12.68
9632.0,0.63,-2.09,11.71
9645.0,0.85,-1.53,10.71
9658.0,0.95,-1.08,9.95
9670.0,0.91,-0.84,9.58
9683.0,0.82,-0.99,9.93
9696.0,0.84,-1.48,10.99
9709.0,0.69,-2.23,11.74
9722.0,0.51,-2.58,11.8
9735.0,0.41,-2.41,11.04
9748.0,0.36,-1.92,9.8
9760.0,0.38,-1.47,8.7
9773.0,0.48,-1.04,7.86
9786.0,0.55,-0.58,7.17
9799.0,0.57,-0.24,6.5
9812.0,0.59,0.09,5.68
9825.0,0.53,0.29,4.96
9838.0,0.43,0.31,4.79
9850.0,0.38,0.22,5.15
9863.0,0.27,-0.01,5.72
9876.0,0.15,-0.25,6.1
9889.0,-0.12,-0.48,6.41
9902.0,-0.29,-0.56,6.4
9915.0,-0.33,-0.48,6.11
9928.0,-0.14,-0.34,5.73
9940.0,0.03,-0.07,5.26
9953.0,0.16,0.17,4.77
9966.0,0.18,0.43,4.48
9979.0,0.01,0.55,4.34
9992.0,-0.19,0.55,4.44
10005.0,-0.29,0.58,4.73
10018.0,-0.1,0.6,5.33
10030.0,0.07,0.45,6.05
10043.0,0.39,0.39,6.48
10056.0,0.89,0.52,6.58
10069.0,1.37,0.66,6.81
10082.0,1.6,0.45,7.08
10095.0,1.44,-0.0,7.54
10108.0,0.94,-0.52,7.84
10120.0,0.23,-0.6,7.3
10133.0,-0.56,-0.33,6.35
10146.0,-0.89,-0.11,5.69
10159.0,-0.37,-0.36,6.37
10172.0,0.28,-0.81,7.98
10185.0,0.53,-1.2,9.5
10198.0,0.68,-1.51,10.19
10210.0,0.21,-1.44,10.12
10223.0,-0.3,-1.26,9.66
10236.0,-0.31,-1.37,9.76
10249.0,0.18,-1.67,10.72
10262.0,0.82,-1.96,11.77
10275.0,1.26,-2.0,12.36
10288.0,1.41,-1.94,12.35
10300.0,1.3,-2.02,12.04
10313.0,0.9,-2.15,11.75
10326.0,0.4,-2.32,11.56
10339.0,0.15,-2.4,11.87
10352.0,0.39,-2.59,12.6
10365.0,0.77,-2.73,13.04
10378.0,0.91,-2.76,13.1
10390.0,0.58,-2.82,13.04
10403.0,-0.09,-2.78,12.96
10416.0,-0.56,-2.66,12.89
10429.0,-0.61,-2.57,13.08
10442.0,-0.08,-2.47,13.37
10455.0,0.63,-2.4,13.64
10468.0,0.87,-2.38,13.72
10481.0,0.82,-2.44,13.55
10493.0,0.55,-2.52,13.45
10506.0,0.28,-2.63,13.33
10519.0,0.11,-2.64,12.99
10532.0,0.06,-2.62,12.59
10545.0,0.09,-2.56,12.36
10558.0,0.28,-2.47,12.22
10571.0,0.6,-2.4,12.32
10583.0,0.75,-2.57,12.68
10596.0,0.66,-2.88,13.08
10609.0,0.59,-3.18,13.4
10622.0,0.58,-3.31,13.36
10635.0,0.53,-3.31,13.27
10648.0,0.5,-3.25,13.23
10661.0,0.3,-3.1,13.11
10673.0,0.17,-2.81,12.7
10686.0,0.14,-2.46,12.3
10699.0,0.4,-2.25,12.03
10712.0,0.79,-2.25,11.86
10725.0,0.88,-2.24,11.59
10738.0,0.81,-1.98,11.15
10751.0,0.83,-1.69,10.68
10763.0,0.85,-1.75,10.96
10776.0,0.71,-2.32,11.94
10789.0,0.4,-3.07,12.68
10802.0,-0.11,-3.35,12.25
10815.0,-0.55,-2.97,11.06
10828.0,-0.47,-2.32,9.81
10841.0,0.04,-1.64,8.85
10853.0,0.4,-1.03,8.11
10866.0,0.41,-0.66,7.66
10879.0,0.36,-0.4,7.33
10892.0,0.2,-0.18,7.03
10905.0,0.06,-0.03,6.9
10918.0,0.07,0.17,6.98
10931.0,0.13,0.26,6.88
10943.0,0.04,0.23,6.6
10956.0,-0.2,0.16,6.4
10969.0,-0.31,0.11,6.28
10982.0,-0.37,0.06,6.27
10995.0,-0.28,-0.05,6.42
11008.0,-0.17,-0.14,6.82
11021.0,-0.15,-0.21,7.05
11034.0,-0.14,-0.27,7.06
11046.0,-0.11,-0.31,7.07
11059.0,0.03,-0.25,6.92
11072.0,0.19,-0.15,6.59
11085.0,0.33,-0.04,6.28
11098.0,0.34,0.03,5.81
11111.0,0.23,0.21,5.56
11124.0,0.14,0.38,5.49
11136.0,0.12,0.53,5.58
11149.0,0.06,0.57,5.76
11162.0,0.07,0.58,5.97
11175.0,0.2,0.45,6.42
11188.0,0.39,0.27,7.12
11201.0,0.7,0.17,7.55
11213.0,0.94,0.12,7.84
11226.0,0.96,-0.13,8.35
11239.0,0.63,-0.66,8.89
11252.0,0.09,-1.04,8.97
11265.0,-0.38,-0.88,8.48
11278.0,-0.55,-0.57,7.82
11291.0,-0.24,-0.51,7.95
11303.0,0.22,-0.91,8.7
11316.0,0.45,-1.2,9.39
11329.0,0.48,-1.16,9.54
11342.0,0.45,-1.07,9.46
11355.0,0.16,-1.2,9.46
11368.0,0.08,-1.46,9.73
11381.0,0.28,-1.76,10.18
11393.0,0.5,-1.93,10.71
11406.0,0.69,-1.93,11.02
11419.0,0.81,-1.78,10.97
11432.0,0.92,-1.67,10.91
11445.0,0.87,-1.9,11.11
11458.0,0.52,-2.22,11.11
11471.0,-0.13,-2.33,10.76
11483.0,-0.61,-2.09,10.45
11496.0,-0.39,-1.79,10.67
11509.0,0.39,-1.61,11.17
11522.0,1.11,-1.53,11.52
11535.0,1.32,-1.66,11.49
11548.0,0.99,-2.06,11.77
11561.0,0.52,-2.7,12.67
11574.0,0.1,-3.4,13.55
11586.0,-0.13,-3.77,13.99
11599.0,-0.04,-3.85,14.0
11612.0,0.28,-3.64,13.58
11625.0,0.61,-3.35,12.82
11638.0,0.8,-3.08,11.95
11651.0,0.9,-2.95,11.57
11664.0,0.89,-3.03,11.89
11676.0,0.77,-3.32,12.38
11689.0,0.63,-3.67,13.02
11702.0,0.5,-4.07,13.85
11715.0,0.33,-4.25,14.34
11728.0,0.19,-4.16,14.17
11741.0,0.18,-3.83,13.67
11754.0,0.37,-3.43,13.31
11766.0,0.58,-3.27,13.37
11779.0,0.66,-3.29,13.78
11792.0,0.71,-3.43,14.35
11805.0,0.76,-3.63,14.9
11818.0,0.76,-3.87,15.27
11831.0,0.62,-3.78,14.98
11844.0,0.36,-3.36,14.26
11856.0,0.25,-2.77,13.35
11869.0,0.26,-2.32,12.62
11882.0,0.5,-2.01,12.15
11895.0,0.78,-1.84,11.85
11908.0,0.88,-1.66,11.48
11921.0,0.81,-1.5,11.02
11934.0,0.63,-1.36,10.35
11946.0,0.41,-1.26,9.65
11959.0,0.26,-1.0,9.0
11972.0,0.2,-0.66,8.22
11985.0,0.19,-0.34,7.55
11998.0,0.25,-0.16,7.1
12011.0,0.36,-0.03,6.94
12024.0,0.31,0.11,6.71
12036.0,0.23,0.18,6.57
12049.0,0.17,0.23,6.5
12062.0,0.23,0.29,6.42
12075.0,0.21,0.32,6.38
12088.0,0.19,0.37,6.17
12101.0,0.2,0.48,6.02
12114.0,0.35,0.67,5.64
12126.0,0.49,0.88,5.15
12139.0,0.44,0.93,4.71
12152.0,0.21,0.77,4.58
12165.0,0.01,0.47,4.84
12178.0,-0.11,0.2,5.24
12191.0,-0.1,0.19,5.46
12203.0,0.02,0.35,5.34
12216.0,0.19,0.51,5.09
12229.0,0.28,0.68,4.86
12242.0,0.27,0.89,4.66
12255.0,0.32,1.2,4.51
12268.0,0.49,1.38,4.84
12280.0,0.74,1.26,5.71
12293.0,0.96,0.92,6.84
12306.0,1.26,0.37,8.28
12319.0,1.44,-0.19,9.3
12332.0,1.31,-0.36,9.19
12345.0,0.98,-0.15,8.34
12358.0,0.68,0.03,7.77
12370.0,0.55,-0.08,7.8
12383.0,0.66,-0.35,8.51
12396.0,0.86,-0.68,9.46
12409.0,0.8,-0.64,9.79
12422.0,0.73,-0.42,9.5
12435.0,0.7,-0.34,9.51
12448.0,0.68,-0.65,9.98
12460.0,0.53,-1.17,10.41
12473.0,0.14,-1.48,10.66
12486.0,-0.11,-1.44,10.66
12499.0,-0.18,-1.08,10.13
12512.0,0.08,-0.77,9.86
12525.0,0.67,-0.63,10.18
12538.0,1.12,-0.69,10.68
12550.0,1.29,-1.14,11.61
12563.0,0.96,-1.69,12.39
12576.0,0.38,-2.01,12.8
12589.0,-0.22,-1.97,12.52
12602.0,-0.5,-1.76,12.08
12615.0,-0.25,-1.61,12.02
12628.0,0.15,-1.56,12.39
12641.0,0.3,-1.69,12.87
12653.0,0.08,-1.73,13.12
12666.0,-0.03,-1.64,13.11
12679.0,0.26,-1.41,13.02
12692.0,0.65,-1.18,12.97
12705.0,0.94,-1.08,12.73
12718.0,1.06,-1.22,12.7
12731.0,0.81,-1.53,12.72
12743.0,0.52,-1.79,12.66
12756.0,0.46,-1.87,12.6
12769.0,0.4,-2.08,12.78
12782.0,0.26,-2.3,12.9
12795.0,-0.01,-2.49,12.98
12808.0,-0.32,-2.58,13.01
12821.0,-0.36,-2.59,13.17
12833.0,-0.21,-2.51,13.3
12846.0,0.01,-2.43,13.42
