timestamp,accX,accY,accZ
2.0,1.06,-0.81,10.12
15.0,0.65,-0.36,7.62
28.0,0.57,-0.03,8.24
41.0,0.71,0.04,8.93
54.0,1.08,-0.23,10.3
66.0,1.38,-0.74,11.53
79.0,1.35,-1.18,11.94
92.0,1.28,-1.45,11.55
105.0,1.08,-1.5,10.63
118.0,0.67,-1.11,9.43
131.0,0.75,-0.49,8.36
144.0,0.84,-0.33,8.18
156.0,0.79,-0.71,8.88
169.0,0.57,-1.29,9.67
182.0,0.16,-2.0,9.96
195.0,-0.33,-2.54,9.79
208.0,-0.76,-2.54,9.32
221.0,-0.61,-2.07,8.74
234.0,0.11,-1.69,9.11
247.0,1.24,-1.53,10.16
259.0,1.78,-1.59,10.84
272.0,1.61,-1.59,10.51
285.0,1.07,-1.53,10.06
298.0,0.52,-1.7,9.94
311.0,0.2,-2.02,10.4
324.0,0.5,-2.33,11.33
337.0,0.94,-2.34,12.03
349.0,1.09,-2.17,11.89
362.0,1.04,-2.02,11.36
375.0,0.9,-1.99,10.95
388.0,0.72,-1.99,10.49
401.0,0.76,-2.1,10.29
414.0,0.95,-2.24,10.55
427.0,1.19,-2.49,11.01
439.0,1.14,-2.74,11.34
452.0,0.9,-2.88,11.38
465.0,0.58,-2.84,11.16
478.0,0.51,-2.61,10.85
491.0,0.57,-2.44,10.71
504.0,0.87,-2.41,10.83
517.0,1.12,-2.58,11.35
529.0,1.08,-2.92,11.98
542.0,0.83,-3.16,12.28
555.0,0.64,-3.08,12.18
568.0,0.68,-2.81,11.79
581.0,0.85,-2.57,11.47
594.0,1.08,-2.46,11.49
607.0,1.13,-2.44,11.53
619.0,1.04,-2.41,11.38
632.0,0.86,-2.56,11.53
645.0,0.63,-2.88,11.68
658.0,0.43,-3.2,12.04
671.0,0.27,-3.4,12.25
684.0,0.19,-3.36,12.15
697.0,0.23,-3.17,11.89
709.0,0.67,-2.93,11.77
722.0,1.4,-2.88,12.45
735.0,1.56,-3.1,13.13
748.0,1.15,-3.38,13.38
761.0,0.79,-3.41,13.19
774.0,0.71,-3.13,12.88
787.0,0.8,-2.79,12.48
799.0,0.69,-2.67,12.13
812.0,0.52,-2.66,11.71
825.0,0.75,-2.78,11.8
838.0,1.21,-3.17,12.76
851.0,1.53,-3.55,13.44
864.0,1.38,-3.63,13.33
877.0,0.95,-3.36,12.26
889.0,0.62,-2.95,11.06
902.0,0.44,-2.54,10.28
915.0,0.46,-2.14,9.7
928.0,0.51,-1.81,9.29
941.0,0.85,-1.73,9.55
954.0,1.27,-1.68,10.0
967.0,1.64,-1.69,10.11
979.0,1.59,-1.87,10.21
992.0,1.27,-2.08,10.44
1005.0,0.82,-2.23,10.43
1018.0,0.68,-2.21,10.06
1031.0,0.96,-2.2,10.13
1044.0,1.25,-2.24,10.42
1057.0,1.36,-2.23,10.28
1069.0,1.15,-1.97,9.63
1082.0,0.88,-1.63,8.93
1095.0,0.63,-1.24,8.4
1108.0,0.68,-0.88,8.01
1121.0,0.82,-0.47,7.52
1134.0,0.86,-0.09,7.03
1147.0,0.6,0.1,6.56
1159.0,0.15,0.18,6.42
1172.0,-0.1,0.16,6.62
1185.0,-0.09,0.2,6.91
1198.0,0.12,0.34,7.02
1211.0,0.28,0.6,6.87
1224.0,0.25,0.99,6.35
1236.0,0.17,1.24,6.11
1249.0,0.15,1.24,6.24
1262.0,0.21,1.12,6.46
1275.0,0.33,1.02,6.66
1288.0,0.37,0.91,6.82
1301.0,0.33,0.82,6.93
1314.0,0.24,0.74,6.91
1326.0,0.24,0.78,6.79
1339.0,0.41,0.93,6.64
1352.0,0.69,1.23,6.47
1365.0,0.92,1.53,6.39
1378.0,0.99,1.69,6.38
1391.0,0.85,1.63,6.68
1403.0,0.61,1.42,7.27
1416.0,0.49,1.22,7.61
1429.0,0.73,1.14,7.91
1442.0,1.0,1.13,8.28
1455.0,1.05,1.04,8.31
1468.0,0.92,0.82,8.37
1480.0,0.49,0.63,8.3
1493.0,0.01,0.54,7.92
1506.0,-0.14,0.52,7.64
1519.0,0.25,0.46,7.97
1532.0,0.74,0.37,8.53
1545.0,1.23,0.17,9.16
1558.0,1.54,-0.2,10.23
1570.0,1.16,-0.56,10.7
1583.0,0.43,-0.76,10.55
1596.0,-0.18,-0.75,9.97
1609.0,-0.23,-0.51,9.5
1622.0,0.32,-0.32,9.75
1635.0,0.95,-0.3,10.16
1648.0,1.43,-0.37,10.32
1660.0,1.42,-0.41,10.25
1673.0,1.25,-0.38,10.13
1686.0,0.89,-0.4,10.0
1699.0,0.51,-0.44,9.77
1712.0,0.27,-0.49,9.68
1725.0,0.19,-0.78,9.94
1738.0,0.28,-1.31,10.37
1750.0,0.4,-1.78,10.7
1763.0,0.24,-1.84,10.51
1776.0,-0.06,-1.72,10.17
1789.0,-0.28,-1.76,10.08
1802.0,-0.18,-1.81,10.11
1815.0,0.22,-1.85,10.23
1828.0,0.82,-1.85,10.17
1840.0,0.93,-1.65,9.9
1853.0,1.05,-1.39,9.55
1866.0,1.22,-1.61,10.17
1879.0,1.25,-1.97,10.87
1892.0,0.96,-2.27,10.89
1905.0,0.68,-2.47,10.66
1918.0,0.2,-2.33,10.07
1930.0,0.04,-2.17,10.01
1943.0,0.43,-2.18,10.93
1956.0,0.95,-2.39,11.82
1969.0,1.15,-2.61,12.32
1982.0,0.88,-2.78,12.26
1995.0,0.66,-2.62,11.77
2008.0,0.38,-2.3,11.04
2020.0,0.27,-2.04,10.45
2033.0,0.1,-2.02,10.24
2046.0,-0.01,-2.16,10.29
2059.0,-0.04,-2.33,10.42
2072.0,-0.06,-2.41,10.54
2085.0,-0.06,-2.41,10.58
2098.0,-0.04,-2.34,10.53
2111.0,-0.12,-2.44,10.76
2123.0,-0.16,-2.69,11.03
2136.0,0.02,-2.85,11.36
2149.0,0.25,-2.85,11.68
2162.0,0.41,-2.77,11.82
2175.0,0.44,-2.78,11.83
2188.0,0.54,-2.78,11.75
2201.0,0.66,-2.74,11.63
2213.0,0.58,-2.7,11.48
2226.0,0.53,-2.64,11.38
2239.0,0.57,-2.64,11.65
2252.0,0.49,-2.7,11.79
2265.0,0.35,-2.85,11.81
2278.0,0.28,-3.04,12.05
2291.0,0.29,-3.16,12.0
2303.0,0.27,-3.12,11.94
2316.0,0.45,-2.93,12.07
2329.0,0.65,-2.78,12.44
2342.0,0.78,-2.89,12.87
2355.0,0.74,-3.29,13.62
2368.0,0.47,-3.69,14.16
2381.0,0.07,-3.78,14.11
2393.0,0.04,-3.36,13.3
2406.0,0.63,-2.81,12.79
2419.0,1.45,-2.61,13.12
2432.0,2.09,-2.93,13.89
2445.0,2.2,-3.15,14.13
2458.0,1.76,-3.07,13.41
2471.0,1.11,-2.95,12.23
2483.0,0.6,-2.82,11.4
2496.0,0.5,-2.61,10.83
2509.0,0.58,-2.21,10.2
2522.0,0.75,-1.74,9.62
2535.0,1.13,-1.45,9.59
2548.0,1.29,-1.19,9.79
2561.0,1.17,-0.88,9.46
2573.0,0.74,-0.68,9.01
2586.0,0.36,-0.61,8.85
2599.0,0.14,-0.59,8.82
2612.0,0.12,-0.5,8.73
2625.0,0.2,-0.39,8.59
2638.0,0.31,-0.44,8.86
2651.0,0.36,-0.61,9.31
2663.0,0.32,-0.75,9.55
2676.0,0.2,-0.76,9.43
2689.0,0.07,-0.62,9.02
2702.0,0.11,-0.35,8.58
2715.0,0.22,-0.07,8.17
2728.0,0.4,0.23,7.92
2741.0,0.62,0.55,7.5
2753.0,0.63,0.94,6.87
2766.0,0.61,1.35,6.24
2779.0,0.62,1.61,5.75
2792.0,0.55,1.68,5.51
2805.0,0.36,1.7,5.36
2818.0,0.01,1.72,5.24
2831.0,-0.25,1.78,5.22
2843.0,-0.42,1.81,5.24
2856.0,-0.42,1.78,5.18
2869.0,-0.32,1.62,5.33
2882.0,-0.19,1.58,5.44
2895.0,-0.0,1.74,5.29
2908.0,0.25,2.04,5.12
2920.0,0.43,2.27,5.13
2933.0,0.4,2.27,5.33
2946.0,0.4,2.16,5.89
2959.0,0.44,2.06,6.5
2972.0,0.66,1.94,7.11
2985.0,0.91,1.74,7.67
2998.0,1.37,1.56,8.09
3010.0,1.81,1.45,8.28
3023.0,1.41,1.21,8.49
3036.0,0.93,0.78,8.76
3049.0,0.51,0.4,8.67
3062.0,0.25,0.19,8.71
3075.0,0.23,-0.01,9.13
3087.0,0.28,-0.31,9.59
3100.0,0.28,-0.73,10.01
3113.0,0.04,-1.05,10.17
3126.0,-0.41,-1.15,10.03
3139.0,-0.65,-1.23,9.95
3152.0,-0.63,-1.18,10.11
3165.0,-0.36,-1.08,10.33
3178.0,-0.1,-1.09,10.65
3190.0,0.02,-1.08,10.74
3203.0,-0.07,-1.0,10.34
3216.0,-0.24,-0.94,9.91
3229.0,-0.52,-1.06,9.91
3242.0,-0.75,-1.05,9.93
3255.0,-0.56,-0.93,9.89
3268.0,0.01,-0.84,10.0
3280.0,0.45,-0.86,9.99
3293.0,0.72,-1.12,10.1
3306.0,0.51,-1.5,10.33
3319.0,-0.12,-1.75,10.28
3332.0,-0.65,-1.68,9.77
3345.0,-0.63,-1.42,9.25
3358.0,0.05,-1.19,9.18
3371.0,1.14,-1.25,10.15
3383.0,1.7,-1.64,11.12
3396.0,1.3,-2.36,11.44
3409.0,0.24,-2.75,11.49
3422.0,-0.08,-2.39,11.05
3435.0,-0.05,-1.86,10.37
3448.0,0.32,-1.55,10.24
3461.0,0.67,-1.7,10.87
3473.0,0.7,-2.24,11.64
3486.0,0.4,-2.8,11.98
3499.0,-0.03,-3.13,11.71
3512.0,-0.42,-3.35,11.28
3525.0,-0.54,-3.53,11.21
3538.0,-0.13,-3.57,11.44
3551.0,0.3,-3.47,11.54
3564.0,0.71,-3.27,11.3
3576.0,0.97,-2.82,10.67
3589.0,1.14,-2.37,10.14
3602.0,1.09,-2.06,9.79
3615.0,1.06,-2.05,9.96
3628.0,1.2,-2.24,10.49
3641.0,1.22,-2.47,11.02
3654.0,0.92,-2.7,11.09
3666.0,0.61,-2.97,11.13
3679.0,0.36,-3.16,11.34
3692.0,0.26,-3.29,11.5
3705.0,0.36,-3.33,11.57
3718.0,0.5,-3.37,11.62
3731.0,0.49,-3.45,11.55
3744.0,0.51,-3.46,11.35
3756.0,0.5,-3.44,11.09
3769.0,0.58,-3.34,10.95
3782.0,0.62,-3.22,10.83
3795.0,0.72,-3.01,10.82
3808.0,0.78,-2.87,10.99
3821.0,0.76,-2.88,11.1
3834.0,0.63,-3.01,11.22
3846.0,0.48,-3.07,11.21
3859.0,0.57,-3.02,11.39
3872.0,0.74,-2.91,11.87
3885.0,0.81,-3.05,12.74
3898.0,0.65,-3.41,13.47
3911.0,0.28,-3.86,14.0
3924.0,0.17,-4.02,14.09
3936.0,0.5,-3.85,13.89
3949.0,1.04,-3.25,13.27
3962.0,1.39,-2.51,12.36
3975.0,1.28,-2.1,11.66
3988.0,0.91,-2.23,11.68
4001.0,0.54,-2.77,12.32
4014.0,0.48,-3.26,12.83
4026.0,0.5,-3.5,12.7
4039.0,0.42,-3.4,12.0
4052.0,0.36,-3.04,11.27
4065.0,0.4,-2.63,10.83
4078.0,0.55,-2.35,10.57
4091.0,0.68,-2.22,10.43
4104.0,0.76,-2.1,10.24
4116.0,0.74,-1.95,9.79
4129.0,0.57,-1.75,9.3
4142.0,0.46,-1.45,8.7
4155.0,0.43,-1.21,8.2
4168.0,0.41,-1.22,8.14
4181.0,0.32,-1.49,8.33
4194.0,0.15,-1.73,8.65
4206.0,-0.03,-1.62,8.64
4219.0,-0.08,-1.39,8.55
4232.0,-0.07,-1.21,8.5
4245.0,-0.01,-1.18,8.67
4258.0,0.07,-1.21,8.62
4271.0,0.15,-1.06,8.35
4284.0,0.21,-0.68,7.86
4296.0,0.17,-0.38,7.42
4309.0,-0.05,-0.13,7.06
4322.0,-0.16,0.09,6.78
4335.0,-0.1,0.41,6.55
4348.0,0.03,0.75,6.49
4361.0,0.26,0.9,6.55
4374.0,0.36,0.84,6.66
4386.0,0.17,0.67,6.88
4399.0,-0.09,0.44,7.01
4412.0,-0.33,0.31,7.25
4425.0,-0.29,0.22,7.47
4438.0,-0.17,0.13,7.87
4451.0,0.04,-0.0,8.27
4464.0,0.27,-0.04,8.18
4476.0,0.52,0.16,7.48
4489.0,0.48,0.4,6.94
4502.0,0.4,0.56,6.56
4515.0,0.24,0.64,6.49
4528.0,0.39,0.69,6.79
4541.0,0.49,0.62,7.18
4553.0,0.46,0.52,7.35
4566.0,0.26,0.42,7.51
4579.0,0.13,0.3,7.95
4592.0,0.0,0.02,8.67
4605.0,-0.12,-0.14,8.95
4618.0,-0.07,-0.07,8.7
4631.0,0.14,0.16,8.17
4643.0,0.51,0.12,8.12
4656.0,0.59,-0.15,8.51
4669.0,0.27,-0.34,8.73
4682.0,0.06,-0.44,8.95
4695.0,0.05,-0.61,9.33
4708.0,0.18,-0.8,9.59
4721.0,0.3,-1.01,9.96
4733.0,0.43,-1.17,10.07
4746.0,0.6,-1.17,10.17
4759.0,0.45,-1.09,9.88
4772.0,0.26,-1.02,9.49
4785.0,0.28,-0.93,9.33
4798.0,0.4,-1.18,9.51
4811.0,0.37,-1.48,9.96
4823.0,0.29,-1.67,10.16
4836.0,-0.03,-1.46,9.66
4849.0,-0.31,-1.03,8.96
4862.0,0.25,-0.96,9.17
4875.0,0.85,-1.03,10.0
4888.0,1.05,-1.33,10.97
4901.0,0.73,-1.65,11.31
4913.0,0.46,-1.8,11.09
4926.0,0.2,-1.75,10.46
4939.0,0.06,-1.64,9.91
4952.0,0.16,-1.59,9.58
4965.0,0.47,-1.67,9.76
4978.0,0.61,-1.7,10.01
4991.0,0.5,-1.89,10.19
5003.0,0.21,-2.18,10.26
5016.0,-0.25,-2.37,10.08
5029.0,-0.6,-2.51,9.98
5042.0,-0.76,-2.45,9.88
5055.0,-0.28,-2.32,10.18
5068.0,0.72,-2.31,11.03
5081.0,1.41,-2.34,11.69
5094.0,1.51,-2.25,11.5
5106.0,1.03,-2.19,10.84
5119.0,0.55,-2.13,10.27
5132.0,0.4,-2.2,10.22
5145.0,0.51,-2.38,10.56
5158.0,0.79,-2.49,11.15
5171.0,1.02,-2.5,11.43
5184.0,1.02,-2.44,11.19
5196.0,1.0,-2.17,10.81
5209.0,1.11,-1.95,10.47
5222.0,1.14,-2.0,10.73
5235.0,1.13,-2.34,11.38
5248.0,0.81,-2.74,11.74
5261.0,0.45,-2.93,11.57
5274.0,0.16,-2.74,10.95
5286.0,0.08,-2.33,10.3
5299.0,0.21,-2.18,10.15
5312.0,0.41,-2.22,10.27
5325.0,0.65,-2.37,10.85
5338.0,0.86,-2.58,11.58
5351.0,0.94,-2.75,11.95
5364.0,0.87,-2.74,11.92
5376.0,0.74,-2.55,11.45
5389.0,0.74,-2.31,11.06
5402.0,1.03,-2.24,11.39
5415.0,1.45,-2.4,12.47
5428.0,1.45,-2.9,13.71
5441.0,0.88,-3.53,14.29
5454.0,0.41,-3.76,14.43
5466.0,0.43,-3.56,14.23
5479.0,0.79,-3.06,13.88
5492.0,1.2,-2.43,13.7
5505.0,1.31,-2.21,13.89
5518.0,1.15,-2.57,14.77
5531.0,0.95,-3.16,15.74
5544.0,0.65,-3.47,15.97
5556.0,0.26,-3.26,15.0
5569.0,-0.04,-2.52,13.29
5582.0,0.37,-1.56,11.99
5595.0,0.98,-1.02,11.82
5608.0,1.06,-0.92,11.96
5621.0,0.94,-0.93,11.45
5634.0,0.89,-0.66,10.56
5646.0,0.94,-0.32,9.6
5659.0,0.85,-0.03,8.86
5672.0,0.83,-0.0,8.56
5685.0,0.57,-0.11,8.44
5698.0,0.49,-0.32,8.61
5711.0,0.44,-0.37,8.96
5724.0,0.56,-0.71,9.65
5736.0,0.86,-1.14,10.54
5749.0,0.66,-1.38,10.49
5762.0,0.01,-1.17,9.5
5775.0,-0.47,-0.69,8.18
5788.0,-0.58,-0.24,7.2
5801.0,-0.24,0.19,6.62
5814.0,0.11,0.51,6.15
5826.0,0.09,0.6,6.0
5839.0,0.05,0.44,6.19
5852.0,-0.12,0.08,6.8
5865.0,-0.21,-0.23,7.54
5878.0,-0.18,-0.34,7.92
5891.0,-0.05,-0.18,7.81
5904.0,0.12,0.1,7.36
5916.0,0.21,0.4,6.57
5929.0,0.25,0.68,5.73
5942.0,0.27,1.0,4.85
5955.0,0.46,0.93,5.15
5968.0,0.71,0.5,6.27
5981.0,0.55,-0.08,7.43
5993.0,0.17,-0.57,8.16
6006.0,-0.3,-0.75,8.31
6019.0,-0.63,-0.66,7.7
6032.0,-0.52,-0.35,6.87
6045.0,-0.1,0.07,6.07
6058.0,0.34,0.44,5.73
6071.0,0.65,0.69,5.82
6083.0,0.83,0.74,6.21
6096.0,0.69,0.75,6.56
6109.0,0.41,0.74,6.68
6122.0,0.31,0.7,6.83
6135.0,0.47,0.5,7.17
6148.0,0.61,0.42,7.35
6161.0,0.84,0.52,7.11
6173.0,0.98,0.39,7.28
6186.0,0.81,0.05,7.85
6199.0,0.5,-0.55,8.45
6212.0,0.19,-1.02,9.2
6225.0,-0.11,-1.46,9.8
6238.0,-0.29,-1.49,9.7
6251.0,-0.2,-1.07,8.79
6263.0,0.11,-0.61,8.21
6276.0,0.61,-0.38,8.61
6289.0,0.66,-0.82,9.51
6302.0,0.54,-1.07,10.36
6315.0,0.35,-1.28,10.5
6328.0,0.3,-1.48,10.75
6341.0,0.25,-1.52,10.75
6353.0,-0.1,-1.45,10.2
6366.0,-0.3,-1.3,9.88
6379.0,-0.06,-1.29,9.92
6392.0,0.44,-1.39,10.49
6405.0,0.69,-1.62,11.13
6418.0,0.53,-1.91,12.03
6431.0,0.05,-2.13,12.19
6443.0,-0.61,-2.1,11.51
6456.0,-0.9,-1.78,10.33
6469.0,-0.58,-1.33,8.88
6482.0,0.32,-1.2,8.83
6495.0,1.04,-1.45,10.45
6508.0,1.19,-2.05,11.96
6521.0,0.72,-2.57,12.34
6534.0,0.08,-2.63,11.77
6546.0,-0.42,-2.35,10.75
6559.0,-0.73,-1.77,9.74
6572.0,-0.53,-1.18,9.02
6585.0,0.22,-1.17,9.49
6598.0,0.91,-1.58,10.86
6611.0,1.03,-2.36,12.27
6624.0,0.33,-2.96,12.87
6636.0,-0.42,-3.06,12.38
6649.0,-0.58,-2.63,11.45
6662.0,-0.25,-2.07,10.84
6675.0,0.45,-1.76,10.75
6688.0,0.89,-1.88,11.61
6701.0,1.11,-2.44,12.58
6714.0,1.32,-2.9,13.36
6726.0,1.27,-2.96,13.16
6739.0,0.93,-2.83,12.19
6752.0,0.7,-2.55,11.51
6765.0,0.51,-2.3,11.14
6778.0,0.25,-2.15,10.97
6791.0,0.37,-2.14,11.17
6804.0,0.35,-2.12,11.37
6816.0,0.03,-2.24,11.63
6829.0,-0.28,-2.59,12.31
6842.0,-0.62,-3.07,13.03
6855.0,-1.0,-3.43,13.3
6868.0,-1.11,-3.41,13.21
6881.0,-0.77,-3.15,13.27
6894.0,-0.13,-2.84,13.44
6907.0,0.42,-2.63,13.68
6919.0,0.74,-2.69,14.36
6932.0,0.74,-2.96,15.06
6945.0,0.39,-3.14,15.29
6958.0,-0.08,-3.15,14.97
6971.0,-0.33,-2.94,14.3
6984.0,-0.22,-2.44,13.33
6997.0,-0.1,-1.94,12.45
7010.0,-0.02,-1.7,11.99
7022.0,0.38,-1.53,11.72
7035.0,0.89,-1.4,11.5
7048.0,1.29,-1.26,11.43
7061.0,1.32,-1.3,11.26
7074.0,1.22,-1.53,11.19
7087.0,0.91,-1.87,11.35
7100.0,0.29,-2.17,11.06
7112.0,-0.4,-2.28,10.49
7125.0,-0.7,-1.99,9.66
7138.0,-0.44,-1.34,8.76
7151.0,-0.02,-0.59,7.89
7164.0,0.29,0.12,7.11
7177.0,0.29,0.59,6.45
7190.0,-0.01,0.66,6.33
7202.0,-0.3,0.32,6.81
7215.0,-0.32,-0.11,7.68
7228.0,-0.12,-0.47,8.59
7241.0,0.01,-0.59,8.95
7254.0,0.0,-0.59,8.57
7267.0,-0.16,-0.38,7.7
7280.0,-0.33,-0.24,6.87
7293.0,-0.48,-0.31,6.38
7305.0,-0.58,-0.49,6.35
7318.0,-0.67,-0.57,6.33
7331.0,-0.74,-0.59,6.39
7344.0,-0.68,-0.55,6.41
7357.0,-0.52,-0.45,6.48
7370.0,-0.43,-0.24,6.36
7383.0,-0.51,-0.06,6.25
7396.0,-0.54,0.04,6.07
7408.0,-0.55,0.08,5.99
7421.0,-0.43,0.17,5.89
7434.0,-0.31,0.34,5.68
7447.0,-0.22,0.51,5.68
7460.0,-0.1,0.73,5.8
7473.0,0.04,0.97,5.85
7485.0,0.18,1.16,5.99
7498.0,0.45,1.19,6.29
7511.0,0.71,1.14,6.61
7524.0,0.78,1.06,6.95
7537.0,0.79,0.9,7.38
7550.0,0.88,0.63,8.06
7563.0,0.65,0.32,8.32
7575.0,0.44,0.07,8.42
7588.0,0.24,-0.14,8.4
7601.0,-0.1,-0.16,7.84
7614.0,-0.22,-0.0,7.41
7627.0,-0.06,0.12,7.39
7640.0,0.5,-0.08,8.05
7653.0,1.51,-0.58,9.85
7665.0,2.08,-1.11,11.6
7678.0,1.5,-1.68,12.21
7691.0,0.33,-1.74,11.28
7704.0,-0.98,-1.35,9.62
7717.0,-1.45,-0.74,8.71
7730.0,-1.11,-0.41,8.86
7743.0,-0.45,-0.57,9.87
7755.0,0.35,-0.94,11.14
7768.0,0.96,-1.16,12.3
7781.0,1.01,-1.32,12.66
7794.0,0.45,-1.31,12.0
7807.0,-0.24,-1.16,10.93
7820.0,-0.59,-0.81,10.15
7833.0,-0.17,-0.52,10.0
7846.0,0.57,-0.53,10.59
7858.0,1.2,-0.99,11.31
7871.0,1.18,-1.74,12.04
7884.0,0.33,-2.42,12.33
7897.0,-0.9,-2.59,11.68
7910.0,-1.47,-2.17,10.56
7923.0,-1.2,-1.6,10.15
7936.0,0.04,-1.28,10.91
7948.0,1.16,-1.22,11.88
7961.0,1.55,-1.41,12.27
7974.0,1.49,-1.8,12.53
7987.0,1.05,-2.05,12.1
8000.0,0.74,-1.86,11.11
8013.0,0.57,-1.44,9.99
8026.0,0.44,-1.23,9.15
8038.0,0.36,-1.31,9.28
8051.0,0.54,-1.7,10.09
8064.0,0.54,-2.16,10.91
8077.0,0.44,-2.6,11.51
8090.0,0.2,-2.81,11.55
8103.0,-0.07,-2.75,11.02
8116.0,-0.21,-2.52,10.45
8128.0,-0.05,-2.35,10.13
8141.0,0.4,-2.26,10.44
8154.0,0.85,-2.29,11.03
8167.0,0.95,-2.47,11.58
8180.0,0.88,-2.66,11.89
8193.0,0.87,-2.7,11.91
8206.0,0.93,-2.55,11.79
8219.0,1.01,-2.39,11.65
8231.0,1.05,-2.25,11.73
8244.0,1.14,-2.27,12.03
8257.0,1.24,-2.42,12.44
8270.0,1.3,-2.65,12.9
8283.0,1.16,-2.81,13.4
8296.0,0.93,-2.89,13.52
8309.0,0.78,-2.83,13.4
8321.0,0.83,-2.66,13.17
8334.0,0.98,-2.45,13.08
8347.0,1.23,-2.32,13.08
8360.0,1.2,-2.22,12.95
8373.0,0.63,-2.16,12.39
8386.0,0.26,-2.04,11.86
8399.0,0.27,-1.8,11.35
8411.0,0.73,-1.44,11.23
8424.0,1.59,-1.23,11.52
8437.0,2.03,-1.52,12.25
8450.0,2.01,-2.12,13.2
8463.0,1.78,-2.67,13.62
8476.0,1.51,-2.95,13.49
8489.0,1.25,-3.04,13.11
8501.0,1.03,-2.87,12.18
8514.0,0.88,-2.43,11.09
8527.0,0.76,-2.0,10.22
8540.0,0.69,-1.63,9.54
8553.0,0.76,-1.3,9.1
8566.0,1.11,-1.0,9.0
8579.0,1.36,-0.77,8.93
8591.0,1.34,-0.61,8.75
8604.0,0.97,-0.53,8.59
8617.0,0.63,-0.56,8.45
8630.0,0.38,-0.64,8.53
8643.0,0.32,-0.74,8.78
8656.0,0.24,-0.88,8.78
8669.0,0.09,-0.96,8.6
8681.0,0.03,-0.92,8.33
8694.0,0.13,-0.74,8.01
8707.0,0.21,-0.51,7.63
8720.0,0.18,-0.27,7.16
8733.0,0.24,-0.05,6.66
8746.0,0.29,0.16,6.3
8759.0,0.23,0.19,5.99
8771.0,0.06,0.02,5.93
8784.0,-0.13,-0.18,6.23
8797.0,-0.18,-0.27,6.65
8810.0,-0.15,-0.34,7.01
8823.0,0.06,-0.18,7.03
8836.0,0.17,0.13,6.44
8849.0,0.06,0.48,5.71
8861.0,-0.12,0.73,5.12
8874.0,-0.11,0.88,4.9
8887.0,0.01,0.91,4.99
8900.0,0.27,0.84,5.38
8913.0,0.49,0.77,5.8
8926.0,0.37,0.71,6.07
8938.0,0.25,0.7,6.42
8951.0,0.32,0.55,6.98
8964.0,0.62,0.43,7.52
8977.0,0.8,0.2,8.02
8990.0,0.86,0.06,8.15
9003.0,0.56,-0.04,7.96
9015.0,0.4,-0.21,8.03
9028.0,0.68,-0.47,8.61
9041.0,0.73,-0.66,8.86
9054.0,0.57,-0.86,8.8
9067.0,0.02,-0.93,8.65
9080.0,-0.25,-0.85,8.6
9093.0,-0.22,-0.85,8.87
9106.0,0.18,-0.96,9.0
9118.0,0.61,-1.07,9.37
9131.0,0.76,-1.07,10.13
9144.0,0.74,-0.96,10.74
9157.0,0.72,-0.93,11.05
9170.0,0.66,-0.98,11.2
9183.0,0.7,-1.04,10.78
9196.0,0.74,-1.13,10.21
9208.0,0.59,-1.53,10.4
9221.0,0.21,-1.76,10.77
9234.0,0.06,-1.73,11.01
9247.0,0.45,-1.55,11.38
9260.0,1.23,-1.46,11.87
9273.0,1.72,-1.74,12.28
9286.0,1.77,-1.93,12.14
9298.0,0.94,-1.74,11.24
9311.0,-0.01,-1.32,9.82
9324.0,-0.74,-1.11,9.08
9337.0,-1.0,-1.31,9.42
9350.0,-0.52,-2.07,11.02
9363.0,-0.2,-2.61,12.05
9376.0,-0.35,-2.65,12.21
9388.0,-0.64,-2.22,11.54
9401.0,-0.71,-1.8,10.83
9414.0,-0.33,-1.58,10.6
9427.0,-0.08,-1.59,10.6
9440.0,-0.08,-1.8,10.58
9453.0,-0.25,-1.98,10.65
9466.0,-0.34,-2.14,10.88
9479.0,-0.05,-2.25,11.12
9491.0,0.34,-2.15,11.06
9504.0,0.65,-2.01,10.78
9517.0,0.86,-1.92,10.64
9530.0,0.78,-1.83,10.39
9543.0,0.57,-1.93,10.29
9556.0,0.34,-2.2,10.34
9569.0,0.1,-2.4,10.42
9581.0,-0.11,-2.61,10.44
9594.0,0.01,-2.73,10.92
9607.0,0.31,-2.8,11.32
9620.0,0.58,-2.87,11.49
9633.0,0.7,-2.92,11.59
9646.0,0.84,-2.86,11.82
9659.0,0.99,-2.73,11.98
9672.0,1.09,-2.65,12.06
9684.0,1.05,-2.65,12.02
9697.0,0.86,-2.74,11.99
9710.0,0.72,-2.8,12.1
9723.0,0.81,-2.98,12.7
9736.0,0.83,-3.08,13.07
9749.0,0.66,-3.03,12.84
9762.0,0.49,-3.07,12.75
9774.0,0.43,-3.16,12.77
9787.0,0.43,-3.16,12.87
9800.0,0.37,-3.1,13.04
9813.0,0.31,-3.05,13.16
9826.0,0.19,-3.0,13.39
9839.0,0.1,-2.97,13.54
9852.0,0.16,-2.94,13.57
9864.0,0.46,-2.68,13.33
9877.0,0.65,-2.39,12.89
9890.0,0.64,-2.12,12.09
9903.0,0.35,-1.8,11.3
9916.0,0.07,-1.56,10.83
9929.0,0.07,-1.44,10.8
9942.0,0.78,-1.63,11.8
9954.0,1.24,-1.87,12.56
9967.0,1.16,-1.88,12.12
9980.0,0.82,-1.46,11.0
9993.0,0.42,-0.74,9.62
10006.0,0.13,-0.41,8.74
10019.0,-0.11,-0.59,8.73
10032.0,-0.07,-0.87,9.0
10044.0,0.16,-0.91,9.01
10057.0,0.35,-0.71,8.78
10070.0,0.48,-0.68,8.8
10083.0,0.42,-0.82,8.88
10096.0,0.15,-1.04,8.99
10109.0,-0.19,-1.08,8.82
10122.0,-0.1,-0.79,8.52
10134.0,0.38,-0.43,8.31
10147.0,0.77,-0.27,7.92
10160.0,0.84,-0.34,7.6
10173.0,0.66,-0.59,7.39
10186.0,0.19,-0.78,7.52
10199.0,-0.05,-0.76,7.6
10212.0,-0.14,-0.61,7.53
10224.0,0.01,-0.45,7.38
10237.0,0.13,-0.25,7.05
10250.0,0.21,-0.03,6.79
10263.0,0.44,0.23,6.55
10276.0,0.56,0.38,6.27
10289.0,0.57,0.35,6.19
10302.0,0.43,0.2,6.19
10314.0,0.17,0.07,6.14
10327.0,0.02,0.0,6.14
10340.0,0.04,0.04,6.12
10353.0,0.19,0.21,6.03
10366.0,0.34,0.47,5.63
10379.0,0.35,0.76,5.17
10391.0,0.37,1.04,4.99
10404.0,0.35,1.27,5.08
10417.0,0.49,1.19,5.5
10430.0,0.71,0.92,6.05
10443.0,0.84,0.53,6.6
10456.0,1.03,0.28,7.03
10469.0,1.28,0.09,7.49
10481.0,1.33,0.12,7.53
10494.0,1.35,0.22,7.38
10507.0,1.27,0.02,7.47
10520.0,1.16,-0.48,7.84
10533.0,1.02,-1.05,8.41
10546.0,0.83,-1.62,9.06
10558.0,0.81,-1.84,9.61
10571.0,1.06,-1.77,9.86
10584.0,1.22,-1.79,10.1
10597.0,1.48,-2.1,10.93
10610.0,1.62,-2.5,11.45
10623.0,1.33,-2.63,10.95
10636.0,0.74,-2.6,10.13
10648.0,0.16,-2.5,9.8
10661.0,0.13,-2.37,10.13
10674.0,0.51,-2.35,10.85
10687.0,0.78,-2.44,11.34
10700.0,0.71,-2.61,11.09
10713.0,0.37,-2.89,10.67
10726.0,-0.12,-3.28,10.34
10739.0,-0.72,-3.47,10.18
10751.0,-1.23,-3.01,9.81
10764.0,-1.09,-2.49,9.4
10777.0,-0.53,-2.29,9.71
10790.0,0.53,-2.55,10.7
10803.0,1.17,-2.91,11.69
10816.0,1.32,-3.11,12.25
10829.0,1.06,-3.17,12.27
10841.0,0.59,-2.96,11.98
10854.0,0.14,-2.86,11.7
10867.0,-0.18,-2.93,11.43
10880.0,-0.29,-2.98,11.17
10893.0,0.1,-2.93,11.35
10906.0,0.68,-2.8,11.77
10919.0,1.28,-2.78,12.19
10932.0,1.58,-2.87,12.43
10944.0,1.6,-2.96,12.36
10957.0,1.29,-2.99,12.11
10970.0,0.79,-2.97,11.8
10983.0,0.34,-2.8,11.2
10996.0,0.37,-2.5,10.85
11009.0,0.51,-2.35,10.78
11022.0,0.68,-2.26,10.69
11034.0,0.79,-2.17,10.64
11047.0,0.88,-2.08,10.77
11060.0,0.93,-2.15,11.01
11073.0,1.03,-2.38,11.59
11086.0,1.04,-2.58,11.87
11099.0,1.13,-2.55,11.61
11112.0,1.35,-2.32,11.25
11124.0,1.61,-2.11,11.09
11137.0,1.54,-2.19,11.17
11150.0,1.22,-2.54,11.57
11163.0,0.66,-2.99,11.81
11176.0,0.09,-3.25,11.79
11189.0,-0.19,-3.22,11.75
11202.0,-0.09,-3.01,11.8
11214.0,0.33,-2.73,11.89
11227.0,0.73,-2.7,12.08
11240.0,0.88,-2.69,12.32
11253.0,0.82,-2.63,12.67
11266.0,0.83,-2.62,13.1
11279.0,0.69,-2.62,13.24
11292.0,0.53,-2.75,13.16
11304.0,0.41,-2.87,12.93
11317.0,0.43,-2.87,12.72
11330.0,0.61,-2.71,12.74
11343.0,0.74,-2.55,12.71
11356.0,0.88,-2.43,12.59
11369.0,0.84,-2.24,12.16
11382.0,0.72,-2.0,11.51
11394.0,0.54,-1.91,10.99
11407.0,0.43,-1.98,10.72
11420.0,0.31,-1.85,10.27
11433.0,0.39,-1.47,9.54
11446.0,0.51,-1.13,9.06
11459.0,0.69,-0.99,8.89
11472.0,0.77,-1.0,8.73
11484.0,0.8,-1.2,9.36
11497.0,0.89,-1.73,10.31
11510.0,0.87,-2.03,10.67
11523.0,0.78,-1.94,10.37
11536.0,0.61,-1.49,9.68
11549.0,0.58,-1.0,8.7
11562.0,0.7,-0.6,7.88
11574.0,0.84,-0.33,7.45
11587.0,0.97,-0.16,7.47
11600.0,1.03,-0.1,7.68
11613.0,0.87,-0.19,7.84
11626.0,0.63,-0.34,8.05
11639.0,0.22,-0.52,8.17
11652.0,-0.0,-0.64,8.24
11664.0,0.12,-0.68,8.29
11677.0,0.25,-0.59,8.08
11690.0,0.28,-0.53,7.88
11703.0,0.18,-0.55,7.8
11716.0,0.09,-0.49,7.71
11729.0,0.11,-0.31,7.53
11742.0,0.21,-0.15,7.42
11754.0,0.28,0.03,7.28
11767.0,0.31,0.29,6.94
11780.0,0.44,0.53,6.62
11793.0,0.57,0.7,6.3
11806.0,0.53,0.74,6.17
11819.0,0.33,0.67,6.15
11832.0,0.06,0.66,5.79
11844.0,-0.04,0.78,5.67
11857.0,-0.01,0.9,5.61
11870.0,-0.06,0.93,5.53
11883.0,-0.07,0.92,5.77
11896.0,-0.03,0.94,6.22
11909.0,0.23,0.89,6.77
11922.0,0.59,0.73,7.31
11934.0,0.94,0.5,7.81
11947.0,1.28,0.2,8.49
11960.0,1.26,-0.13,8.88
11973.0,0.72,-0.25,8.63
11986.0,0.11,-0.33,8.22
11999.0,-0.29,-0.55,8.15
12012.0,-0.12,-0.96,8.68
12024.0,0.48,-1.24,9.34
12037.0,0.91,-1.29,9.63
12050.0,1.22,-1.13,9.59
12063.0,1.2,-1.03,9.59
12076.0,1.14,-0.99,9.64
12089.0,1.11,-0.84,9.51
12102.0,1.14,-0.64,9.26
12114.0,1.4,-0.61,9.36
12127.0,1.73,-0.77,9.91
12140.0,2.09,-1.25,11.04
12153.0,2.08,-1.67,11.52
12166.0,1.56,-1.63,11.29
12179.0,0.76,-1.2,10.44
12192.0,0.27,-0.91,9.79
12204.0,0.32,-0.97,10.04
12217.0,0.42,-1.33,10.55
12230.0,0.34,-1.58,10.93
12243.0,0.06,-1.43,10.75
12256.0,0.12,-1.11,10.4
12269.0,0.49,-0.99,10.39
12282.0,1.08,-1.23,10.93
12294.0,1.44,-1.53,11.45
12307.0,1.55,-1.51,11.19
12320.0,1.34,-1.38,10.68
12333.0,1.02,-1.45,10.44
12346.0,0.86,-1.75,10.64
12359.0,0.58,-2.06,10.81
12372.0,0.34,-2.0,10.54
12384.0,0.43,-1.86,10.48
12397.0,0.61,-1.89,10.69
12410.0,0.67,-2.1,10.88
12423.0,0.41,-2.35,10.58
12436.0,0.15,-2.52,10.48
12449.0,0.17,-2.35,10.6
12462.0,0.59,-2.01,10.75
12474.0,1.3,-1.6,10.86
12487.0,1.81,-1.32,10.82
12500.0,2.01,-1.2,10.69
12513.0,1.79,-1.28,10.83
12526.0,1.31,-1.47,11.07
12539.0,0.74,-1.71,11.11
12552.0,0.33,-1.83,11.03
12564.0,0.25,-1.87,10.93
12577.0,0.4,-1.84,10.86
12590.0,0.72,-1.79,10.93
12603.0,1.06,-1.84,11.32
12616.0,1.12,-2.02,11.55
12629.0,0.88,-2.23,11.55
12642.0,0.52,-2.29,11.22
12654.0,0.19,-2.3,10.81
12667.0,0.2,-2.22,10.58
12680.0,0.47,-2.12,10.43
12693.0,1.02,-1.98,10.53
12706.0,1.38,-2.1,10.91
12719.0,1.16,-2.36,10.97
12732.0,0.95,-2.58,10.8
12744.0,0.7,-2.62,10.58
12757.0,0.52,-2.58,10.24
12770.0,0.52,-2.52,9.99
12783.0,0.67,-2.39,9.87
12796.0,0.83,-2.33,9.87
12809.0,1.0,-2.41,10.07
12822.0,1.05,-2.49,10.35
12834.0,1.07,-2.44,10.42
12847.0,1.02,-2.33,10.58
