timestamp,accX,accY,accZ
2.0,0.96,-0.95,15.49
15.0,0.62,-0.82,12.73
28.0,0.49,-1.15,15.52
41.0,0.07,-1.6,16.44
54.0,-0.18,-1.91,16.63
67.0,-0.02,-2.06,16.83
79.0,0.49,-2.09,17.11
92.0,0.8,-2.03,16.94
105.0,1.11,-2.08,16.98
118.0,1.28,-2.23,17.23
131.0,1.04,-2.23,16.93
144.0,0.83,-2.05,16.24
157.0,0.65,-1.79,15.59
169.0,0.65,-1.35,14.78
182.0,0.58,-0.88,14.05
195.0,0.68,-0.51,13.34
208.0,0.95,-0.42,12.95
221.0,1.38,-0.79,13.45
234.0,1.53,-1.32,13.93
247.0,1.49,-1.71,13.76
259.0,1.58,-1.5,12.51
272.0,1.84,-0.84,10.67
285.0,2.17,-0.11,8.94
298.0,2.45,0.53,7.24
311.0,2.4,0.8,6.13
324.0,2.04,0.69,5.66
336.0,1.48,0.29,5.45
349.0,1.16,-0.23,5.73
362.0,0.84,-0.63,6.03
375.0,0.75,-0.62,5.92
388.0,0.79,-0.37,5.65
401.0,1.0,-0.15,5.16
414.0,1.11,0.04,4.62
426.0,1.02,0.2,3.96
439.0,0.67,0.31,3.26
452.0,0.21,0.27,2.55
465.0,-0.0,0.2,2.35
478.0,-0.08,-0.01,2.39
491.0,0.01,-0.34,2.73
504.0,0.34,-0.86,3.8
516.0,0.46,-1.34,4.74
529.0,0.38,-1.41,5.03
542.0,0.2,-1.01,4.82
555.0,0.03,-0.61,4.33
568.0,-0.1,-0.33,3.96
581.0,0.16,-0.17,4.07
594.0,0.91,-0.27,5.02
606.0,1.59,-0.56,6.48
619.0,1.82,-0.85,7.56
632.0,1.47,-0.97,7.61
645.0,0.96,-0.95,7.22
658.0,0.93,-0.87,6.59
671.0,1.29,-0.45,5.97
684.0,1.78,-0.01,6.18
696.0,2.06,0.05,7.32
709.0,1.95,-0.29,8.72
722.0,1.7,-0.65,9.54
735.0,1.37,-1.11,10.52
748.0,0.64,-1.8,11.42
761.0,-0.05,-2.23,11.81
774.0,-0.18,-2.21,12.02
786.0,0.24,-2.22,12.39
799.0,1.12,-2.15,12.98
812.0,1.77,-1.95,13.49
825.0,1.8,-1.55,13.39
838.0,1.2,-1.23,13.13
851.0,0.52,-1.34,13.36
864.0,0.06,-1.73,13.8
876.0,-0.21,-2.12,14.38
889.0,-0.07,-2.25,14.85
902.0,0.2,-1.9,14.86
915.0,0.58,-1.47,14.61
928.0,0.88,-1.32,14.63
941.0,0.68,-1.44,14.93
954.0,0.36,-1.59,15.24
967.0,0.17,-1.66,15.49
979.0,0.46,-1.73,15.95
992.0,1.03,-2.06,16.69
1005.0,1.75,-2.63,18.0
1018.0,2.04,-3.11,18.68
1031.0,1.77,-3.21,18.42
1044.0,1.19,-3.01,17.91
1057.0,0.83,-2.57,16.96
1069.0,0.46,-2.21,16.02
1082.0,0.38,-2.04,15.16
1095.0,0.41,-2.21,15.06
1108.0,0.46,-2.36,14.87
1121.0,0.7,-2.16,14.1
1134.0,1.16,-1.52,12.55
1147.0,1.49,-0.83,10.88
1159.0,1.68,-0.36,9.72
1172.0,1.88,-0.11,8.91
1185.0,2.04,-0.07,8.16
1198.0,2.15,0.02,7.48
1211.0,2.1,-0.04,7.19
1224.0,1.86,-0.26,7.06
1236.0,1.51,-0.61,6.99
1249.0,1.16,-0.98,6.87
1262.0,0.77,-1.05,6.65
1275.0,0.6,-0.87,6.17
1288.0,0.63,-0.63,5.77
1301.0,0.85,-0.48,5.54
1314.0,1.03,-0.51,5.39
1327.0,0.71,-0.71,5.11
1339.0,0.09,-1.05,4.68
1352.0,-0.34,-1.37,4.55
1365.0,-0.55,-1.58,4.62
1378.0,-0.55,-1.68,4.91
1391.0,-0.39,-1.66,5.11
1404.0,-0.18,-1.56,5.13
1417.0,0.16,-1.28,4.84
1429.0,0.34,-0.71,4.04
1442.0,0.49,-0.19,3.53
1455.0,0.68,-0.04,4.02
1468.0,0.75,-0.11,4.67
1481.0,0.93,-0.18,5.43
1494.0,1.11,-0.13,5.9
1507.0,1.26,0.07,5.78
1519.0,1.51,0.42,5.42
1532.0,1.7,0.53,5.44
1545.0,1.59,0.31,6.15
1558.0,1.4,-0.17,6.97
1571.0,0.79,-0.55,7.11
1584.0,-0.23,-0.69,6.46
1597.0,-0.89,-0.76,5.66
1609.0,-0.87,-0.93,6.51
1622.0,-0.23,-0.91,8.44
1635.0,0.76,-1.02,10.43
1648.0,1.17,-1.29,11.77
1661.0,1.16,-1.53,12.02
1674.0,0.9,-1.44,11.26
1687.0,-0.1,-1.3,9.89
1699.0,-0.96,-1.17,9.51
1712.0,-0.63,-1.14,10.25
1725.0,0.96,-1.11,11.97
1738.0,2.52,-0.99,13.67
1751.0,2.76,-1.18,14.39
1764.0,1.67,-1.59,14.47
1777.0,0.19,-2.16,14.66
1790.0,-0.31,-2.46,15.28
1802.0,0.14,-2.42,16.14
1815.0,1.01,-2.17,16.47
1828.0,1.3,-1.7,16.08
1841.0,0.84,-1.32,15.03
1854.0,0.16,-1.23,14.55
1867.0,-0.27,-1.42,14.84
1880.0,-0.28,-1.6,15.28
1892.0,-0.03,-1.58,15.41
1905.0,0.16,-1.5,15.51
1918.0,0.15,-1.52,15.52
1931.0,0.18,-1.7,15.8
1944.0,0.13,-1.94,16.09
1957.0,-0.14,-2.19,16.51
1970.0,-0.43,-2.34,16.84
1982.0,-0.53,-1.98,16.44
1995.0,-0.4,-1.51,15.63
2008.0,-0.22,-1.34,15.16
2021.0,0.04,-1.48,15.01
2034.0,0.72,-1.96,15.85
2047.0,1.28,-2.39,16.38
2060.0,1.41,-2.38,15.43
2073.0,1.36,-1.8,13.45
2085.0,1.32,-1.28,11.51
2098.0,1.29,-0.99,10.23
2111.0,1.29,-0.58,8.99
2124.0,1.11,-0.09,7.55
2137.0,1.06,0.29,6.19
2150.0,1.11,0.46,5.56
2163.0,1.21,0.29,5.67
2175.0,1.0,-0.3,6.25
2188.0,0.84,-0.63,6.25
2201.0,0.57,-0.66,5.85
2214.0,0.31,-0.64,5.64
2227.0,0.28,-0.66,5.77
2240.0,0.51,-0.53,5.71
2253.0,0.79,-0.18,5.15
2265.0,0.79,0.17,4.16
2278.0,0.47,0.28,3.32
2291.0,0.35,0.44,2.75
2304.0,0.43,0.49,2.59
2317.0,0.65,0.26,2.82
2330.0,0.81,-0.17,3.52
2342.0,0.94,-0.61,4.47
2355.0,0.69,-0.9,5.08
2368.0,0.25,-0.96,5.1
2381.0,-0.16,-0.53,4.4
2394.0,-0.43,0.14,3.35
2407.0,-0.36,0.79,2.32
2420.0,0.47,1.03,2.43
2432.0,1.09,0.76,4.33
2445.0,1.58,0.21,6.3
2458.0,1.75,-0.34,7.73
2471.0,1.29,-0.63,7.62
2484.0,0.73,-0.6,6.55
2497.0,0.71,-0.63,6.02
2510.0,0.97,-0.68,6.46
2522.0,1.28,-0.81,7.8
2535.0,1.76,-0.93,8.82
2548.0,2.5,-0.77,8.88
2561.0,3.38,-0.04,8.58
2574.0,3.95,0.86,8.57
2587.0,3.37,0.81,9.22
2600.0,2.13,-0.5,11.3
2612.0,0.72,-1.95,13.11
2625.0,-0.16,-2.98,14.12
2638.0,-0.48,-3.48,14.46
2651.0,-0.6,-3.58,14.6
2664.0,-0.81,-3.4,14.58
2677.0,-0.83,-2.91,14.3
2690.0,-0.49,-2.3,13.84
2703.0,-0.02,-1.92,13.57
2715.0,0.11,-1.83,13.59
2728.0,-0.34,-1.84,13.99
2741.0,-0.76,-1.57,14.01
2754.0,-0.75,-1.14,13.8
2767.0,-0.31,-0.88,13.92
2780.0,0.17,-0.85,14.47
2793.0,0.57,-1.39,15.77
2805.0,0.54,-1.91,16.98
2818.0,0.32,-2.22,17.59
2831.0,0.22,-2.46,18.28
2844.0,0.54,-2.63,19.16
2857.0,0.99,-2.88,19.61
2870.0,1.35,-3.16,19.61
2883.0,1.33,-3.12,19.61
2895.0,1.05,-2.93,18.59
2908.0,1.05,-2.82,17.64
2921.0,1.23,-2.69,16.95
2934.0,1.36,-2.58,16.0
2947.0,1.48,-2.31,14.65
2960.0,1.71,-1.86,13.17
2973.0,2.11,-1.23,11.53
2985.0,2.37,-0.78,9.94
2998.0,2.38,-0.57,8.88
3011.0,2.35,-0.79,8.64
3024.0,2.18,-1.28,8.61
3037.0,1.91,-1.68,8.34
3050.0,1.45,-1.77,7.45
3063.0,0.85,-1.63,6.35
3075.0,0.71,-1.23,5.59
3088.0,0.79,-0.85,4.93
3101.0,0.81,-0.58,4.26
3114.0,0.52,-0.5,3.68
3127.0,0.08,-0.47,3.21
3140.0,-0.44,-0.46,2.83
3153.0,-0.68,-0.33,2.49
3166.0,-0.34,-0.15,2.4
3178.0,0.4,-0.15,2.87
3191.0,1.12,-0.25,3.55
3204.0,1.53,-0.48,4.28
3217.0,1.37,-0.66,4.89
3230.0,0.85,-0.82,4.72
3243.0,0.26,-0.88,4.21
3256.0,-0.33,-0.69,3.72
3268.0,-0.46,-0.45,3.4
3281.0,-0.29,-0.17,3.39
3294.0,0.08,0.08,3.61
3307.0,0.63,0.2,4.36
3320.0,1.01,0.15,5.2
3333.0,1.18,0.14,5.62
3346.0,1.36,0.25,5.66
3358.0,1.51,0.23,5.87
3371.0,1.39,-0.11,6.28
3384.0,0.85,-0.57,6.6
3397.0,0.1,-0.58,6.47
3410.0,-0.01,-0.34,6.86
3423.0,0.32,-0.42,7.93
3436.0,1.08,-0.84,9.28
3448.0,1.75,-1.26,10.61
3461.0,1.57,-1.34,11.43
3474.0,0.43,-1.27,10.89
3487.0,-0.38,-0.99,9.98
3500.0,0.06,-0.86,10.02
3513.0,1.35,-1.14,11.27
3526.0,2.59,-1.44,13.06
3538.0,3.2,-1.63,14.09
3551.0,2.97,-1.45,13.9
3564.0,2.16,-1.16,13.21
3577.0,1.24,-1.34,13.16
3590.0,0.86,-2.05,14.07
3603.0,0.56,-2.86,15.15
3616.0,0.38,-3.03,15.58
3628.0,0.36,-2.69,15.59
3641.0,0.47,-2.32,15.56
3654.0,0.61,-2.09,15.38
3667.0,0.67,-1.99,15.31
3680.0,0.65,-1.95,15.3
3693.0,0.45,-1.85,15.04
3706.0,0.35,-1.8,15.06
3718.0,0.45,-1.97,15.63
3731.0,0.9,-2.33,16.74
3744.0,1.22,-2.73,17.59
3757.0,1.13,-2.97,17.68
3770.0,0.93,-2.99,17.22
3783.0,0.66,-2.68,16.38
3796.0,0.5,-2.27,15.83
3808.0,0.52,-2.1,15.39
3821.0,0.75,-1.95,15.17
3834.0,1.06,-1.82,14.86
3847.0,1.19,-1.76,14.7
3860.0,1.06,-1.69,14.23
3873.0,1.04,-1.47,13.33
3886.0,1.47,-0.97,12.03
3898.0,2.23,-0.54,11.1
3911.0,2.84,-0.45,10.57
3924.0,3.04,-0.58,10.35
3937.0,2.72,-0.78,9.7
3950.0,2.2,-0.81,8.7
3963.0,1.8,-0.69,7.57
3976.0,1.49,-0.73,6.74
3988.0,1.16,-0.98,6.54
4001.0,0.83,-1.29,6.67
4014.0,0.7,-1.27,6.35
4027.0,0.68,-0.79,5.35
4040.0,0.68,-0.29,4.05
4053.0,0.74,0.16,2.89
4066.0,0.56,0.37,2.25
4078.0,0.4,0.31,1.95
4091.0,0.04,0.13,2.35
4104.0,-0.02,-0.23,2.92
4117.0,-0.02,-0.67,3.68
4130.0,-0.15,-1.06,4.26
4143.0,-0.37,-1.36,4.41
4156.0,-0.48,-1.46,4.34
4168.0,-0.47,-1.1,3.82
4181.0,-0.3,-0.39,2.99
4194.0,0.25,0.07,2.67
4207.0,0.95,0.22,3.49
4220.0,1.39,0.18,4.52
4233.0,1.59,-0.07,5.69
4246.0,1.72,-0.36,6.45
4258.0,1.35,-0.48,6.72
4271.0,0.83,-0.46,6.34
4284.0,0.25,-0.53,5.76
4297.0,0.35,-0.76,5.63
4310.0,1.06,-1.09,6.31
4323.0,1.84,-1.46,7.92
4336.0,2.49,-1.56,9.43
4348.0,2.98,-1.3,10.07
4361.0,3.14,-0.76,9.93
4374.0,3.19,-0.32,8.8
4387.0,2.88,-0.43,8.35
4400.0,2.54,-0.95,9.31
4413.0,2.49,-1.66,10.83
4426.0,2.5,-2.27,12.16
4438.0,2.51,-2.42,13.23
4451.0,2.23,-2.22,13.3
4464.0,1.66,-2.04,12.84
4477.0,1.1,-2.03,12.56
4490.0,1.16,-2.3,13.17
4503.0,1.55,-2.62,14.56
4516.0,1.48,-2.59,15.41
4528.0,0.98,-2.39,15.28
4541.0,0.31,-2.13,14.61
4554.0,-0.07,-1.87,14.09
4567.0,-0.1,-1.72,14.06
4580.0,0.21,-1.69,14.4
4593.0,0.66,-1.55,14.69
4606.0,1.02,-1.58,15.18
4619.0,1.11,-1.69,15.49
4631.0,0.99,-1.67,15.45
4644.0,0.89,-1.74,15.45
4657.0,1.07,-2.02,15.72
4670.0,1.52,-2.32,15.99
4683.0,1.93,-2.62,16.24
4696.0,2.1,-2.88,16.38
4709.0,2.01,-2.95,16.22
4721.0,1.86,-2.98,16.08
4734.0,1.86,-2.87,15.79
4747.0,1.9,-2.66,15.36
4760.0,1.9,-2.47,15.05
4773.0,2.04,-2.29,14.83
4786.0,2.0,-2.37,14.7
4799.0,2.11,-2.7,14.49
4811.0,1.9,-2.9,14.17
4824.0,1.58,-2.72,13.27
4837.0,1.38,-2.18,11.83
4850.0,1.56,-1.57,10.36
4863.0,1.97,-0.88,8.91
4876.0,2.4,-0.27,7.61
4889.0,2.67,-0.05,6.94
4901.0,2.66,-0.12,6.74
4914.0,2.44,-0.32,6.67
4927.0,2.09,-0.53,6.5
4940.0,1.93,-0.6,6.16
4953.0,1.82,-0.52,5.78
4966.0,1.64,-0.45,5.33
4979.0,1.39,-0.38,4.78
4991.0,1.04,-0.34,4.12
5004.0,0.72,-0.25,3.31
5017.0,0.59,-0.25,2.92
5030.0,0.54,-0.36,2.89
5043.0,0.25,-0.47,3.04
5056.0,-0.04,-0.61,3.04
5069.0,-0.42,-0.66,2.74
5081.0,-0.38,-0.53,2.4
5094.0,-0.21,-0.47,2.18
5107.0,-0.21,-0.38,2.31
5120.0,-0.39,-0.22,2.05
5133.0,-0.51,-0.02,2.09
5146.0,-0.18,0.07,2.82
5159.0,0.52,0.08,3.88
5171.0,1.19,0.09,4.74
5184.0,1.69,0.15,5.19
5197.0,1.84,0.02,5.78
5210.0,1.39,-0.33,6.12
5223.0,1.15,-0.64,6.43
5236.0,1.51,-0.69,6.99
5249.0,1.94,-0.57,7.18
5261.0,2.16,-0.54,7.57
5274.0,2.25,-0.62,8.24
5287.0,1.76,-0.85,8.98
5300.0,1.74,-1.31,10.02
5313.0,2.26,-1.79,11.27
5326.0,2.72,-2.14,11.99
5339.0,2.77,-2.55,12.6
5351.0,2.31,-2.73,12.75
5364.0,1.47,-2.8,12.19
5377.0,0.59,-2.83,11.63
5390.0,-0.42,-3.04,11.31
5403.0,-1.23,-3.39,11.52
5416.0,-0.74,-3.61,13.21
5429.0,0.34,-3.44,14.62
5442.0,1.15,-3.14,15.3
5454.0,1.32,-3.09,15.48
5467.0,0.99,-3.02,15.17
5480.0,0.97,-2.95,15.51
5493.0,1.35,-2.9,16.09
5506.0,1.9,-2.8,16.23
5519.0,2.29,-2.55,16.21
5532.0,2.48,-2.32,16.42
5544.0,2.53,-2.06,16.65
5557.0,2.42,-1.95,16.9
5570.0,2.42,-2.06,17.13
5583.0,2.46,-2.46,17.5
5596.0,2.54,-3.05,18.46
5609.0,2.53,-3.68,19.3
5622.0,2.36,-4.25,19.58
5634.0,2.12,-4.48,19.28
5647.0,1.9,-4.36,18.42
5660.0,1.71,-3.98,17.06
5673.0,1.42,-3.55,15.49
5686.0,1.07,-3.01,13.65
5699.0,0.98,-2.58,12.12
5712.0,1.3,-2.18,10.9
5724.0,1.81,-1.74,10.02
5737.0,2.01,-1.58,9.47
5750.0,1.91,-1.75,9.01
5763.0,1.82,-1.83,8.58
5776.0,2.07,-1.73,8.07
5789.0,2.24,-1.63,7.69
5802.0,2.26,-1.64,7.57
5814.0,1.95,-1.74,7.15
5827.0,1.53,-1.66,6.69
5840.0,1.0,-1.53,5.87
5853.0,0.48,-1.42,4.97
5866.0,0.06,-1.42,4.4
5879.0,-0.18,-1.47,4.23
5892.0,-0.36,-1.47,3.86
5904.0,-0.44,-1.42,3.55
5917.0,-0.45,-1.29,3.29
5930.0,-0.36,-1.15,3.11
5943.0,-0.15,-0.94,2.89
5956.0,0.22,-0.71,2.75
5969.0,0.53,-0.58,2.66
5982.0,0.68,-0.46,2.6
5994.0,0.6,-0.35,2.64
6007.0,0.45,-0.19,2.42
6020.0,0.2,0.08,2.11
6033.0,0.1,0.28,2.11
6046.0,0.23,0.46,2.42
6059.0,0.42,0.56,2.79
6072.0,0.54,0.53,3.29
6084.0,0.98,0.35,3.99
6097.0,1.82,0.09,5.24
6110.0,2.59,-0.24,6.32
6123.0,2.87,-0.63,6.9
6136.0,2.53,-0.83,6.81
6149.0,1.44,-0.97,6.29
6162.0,0.74,-1.24,7.07
6174.0,0.68,-1.61,8.62
6187.0,1.29,-1.9,10.22
6200.0,1.93,-2.0,11.08
6213.0,2.22,-1.94,11.09
6226.0,1.91,-1.94,11.21
6239.0,1.22,-1.91,11.25
6252.0,0.46,-1.8,11.08
6264.0,0.18,-1.66,11.54
6277.0,0.84,-1.92,12.91
6290.0,1.62,-2.47,15.05
6303.0,1.54,-2.96,15.94
6316.0,0.34,-2.97,15.45
6329.0,-0.86,-2.49,14.26
6342.0,-0.61,-1.86,14.04
6354.0,0.87,-1.47,15.18
6367.0,2.25,-1.48,16.8
6380.0,2.26,-1.95,17.82
6393.0,1.39,-2.51,18.29
6406.0,0.73,-3.07,18.99
6419.0,0.62,-3.48,19.61
6432.0,0.64,-3.76,19.61
6444.0,0.39,-4.02,19.61
6457.0,0.01,-4.12,19.32
6470.0,-0.22,-4.08,18.78
6483.0,-0.11,-3.9,18.49
6496.0,0.05,-3.62,18.1
6509.0,0.06,-3.35,17.27
6522.0,0.09,-2.95,16.21
6534.0,0.36,-2.38,14.67
6547.0,0.93,-1.72,13.55
6560.0,1.42,-1.1,12.36
6573.0,1.53,-0.78,11.41
6586.0,1.62,-1.01,11.12
6599.0,1.51,-1.56,11.08
6612.0,1.34,-2.02,10.87
6624.0,1.42,-2.08,10.21
6637.0,1.6,-2.02,9.36
6650.0,1.62,-1.88,8.53
6663.0,1.62,-1.75,7.85
6676.0,1.61,-1.63,7.25
6689.0,1.72,-1.59,6.81
6702.0,1.6,-1.66,6.48
6714.0,1.18,-1.7,6.0
6727.0,0.77,-1.48,4.93
6740.0,0.6,-1.21,4.07
6753.0,0.64,-1.03,3.4
6766.0,0.6,-1.02,3.27
6779.0,0.49,-1.05,3.42
6792.0,0.17,-1.07,3.49
6804.0,-0.14,-0.9,3.33
6817.0,-0.17,-0.63,3.05
6830.0,0.09,-0.43,2.99
6843.0,0.44,-0.35,3.16
6856.0,0.78,-0.41,3.23
6869.0,0.85,-0.57,3.28
6882.0,0.64,-0.53,3.26
6895.0,0.49,-0.21,2.96
6907.0,0.36,0.01,2.83
6920.0,0.22,0.03,3.29
6933.0,0.19,-0.03,3.86
6946.0,0.28,-0.1,4.31
6959.0,0.49,-0.08,4.36
6972.0,0.83,-0.25,4.94
6984.0,1.21,-0.56,5.64
6997.0,1.6,-0.6,6.11
7010.0,1.43,-0.55,5.95
7023.0,1.05,-0.67,5.75
7036.0,0.48,-0.85,5.89
7049.0,0.39,-1.0,6.59
7062.0,1.02,-1.08,7.61
7075.0,1.76,-1.05,8.69
7087.0,2.5,-1.03,9.49
7100.0,3.17,-1.39,10.31
7113.0,2.84,-2.46,11.23
7126.0,1.91,-3.75,12.33
7139.0,0.69,-4.41,12.81
7152.0,-0.18,-4.4,12.6
7165.0,0.12,-4.05,12.82
7177.0,1.14,-3.43,13.58
7190.0,1.88,-3.06,14.11
7203.0,1.98,-3.15,14.48
7216.0,1.64,-3.48,14.73
7229.0,0.94,-3.87,14.66
7242.0,0.02,-3.96,14.32
7255.0,-0.29,-3.37,13.85
7267.0,0.21,-2.69,13.78
7280.0,1.3,-2.29,14.51
7293.0,2.05,-2.36,15.52
7306.0,1.96,-2.85,16.26
7319.0,1.41,-3.37,16.76
7332.0,0.96,-3.75,17.51
7345.0,0.51,-4.07,18.25
7357.0,0.21,-4.16,18.39
7370.0,-0.01,-3.99,18.04
7383.0,-0.36,-3.78,17.46
7396.0,-0.76,-3.6,16.83
7409.0,-0.75,-3.42,16.4
7422.0,-0.31,-3.38,16.4
7435.0,0.21,-3.58,16.54
7447.0,0.77,-3.77,16.7
7460.0,1.17,-3.83,16.69
7473.0,1.44,-3.68,16.16
7486.0,1.42,-3.53,15.35
7499.0,1.05,-3.37,14.39
7512.0,0.81,-3.07,13.21
7525.0,0.83,-2.59,11.87
7538.0,1.1,-1.87,10.5
7550.0,1.5,-1.25,9.11
7563.0,1.73,-1.07,8.49
7576.0,1.67,-1.28,8.49
7589.0,1.34,-1.63,8.49
7602.0,0.98,-1.78,8.38
7615.0,0.92,-1.59,8.0
7628.0,0.7,-1.3,7.41
7640.0,0.37,-1.11,6.73
7653.0,0.35,-0.79,5.37
7666.0,0.02,-0.36,4.85
7679.0,0.18,-0.1,4.32
7692.0,0.37,0.05,3.75
7705.0,0.2,-0.01,3.46
7717.0,-0.06,-0.18,3.52
7730.0,-0.22,-0.41,3.73
7743.0,-0.23,-0.49,3.9
7756.0,-0.1,-0.44,3.93
7769.0,0.16,-0.25,3.87
7782.0,0.38,-0.11,3.84
7795.0,0.5,-0.11,3.66
7808.0,0.31,-0.15,3.46
7820.0,0.16,-0.1,3.33
7833.0,0.0,0.08,3.39
7846.0,0.18,0.44,3.31
7859.0,0.44,0.91,3.42
7872.0,0.74,1.39,3.57
7885.0,1.1,1.73,3.71
7897.0,1.6,1.68,4.5
7910.0,1.94,1.35,5.17
7923.0,1.84,0.99,5.34
7936.0,1.35,0.74,5.82
7949.0,1.1,0.38,6.51
7962.0,1.11,0.06,7.48
7975.0,1.14,-0.29,8.06
7987.0,0.98,-0.5,7.45
8000.0,0.55,-0.56,6.54
8013.0,0.33,-0.57,6.29
8026.0,0.13,-0.64,6.95
8039.0,-0.15,-0.46,7.87
8052.0,0.39,-0.24,8.49
8065.0,1.34,-0.35,8.92
8077.0,1.78,-0.72,9.26
8090.0,1.5,-1.21,10.01
8103.0,1.24,-1.83,11.15
8116.0,1.19,-2.36,12.5
8129.0,1.1,-2.63,13.46
8142.0,0.74,-2.78,13.58
8155.0,0.33,-2.78,13.47
8167.0,0.15,-2.84,13.85
8180.0,0.17,-2.82,14.56
8193.0,0.25,-2.73,14.96
8206.0,0.39,-2.62,15.2
8219.0,0.44,-2.42,15.27
8232.0,0.48,-2.32,15.27
8245.0,0.5,-2.4,15.55
8257.0,0.51,-2.64,16.41
8270.0,0.62,-2.86,17.01
8283.0,0.79,-3.01,17.45
8296.0,0.96,-3.32,18.02
8309.0,0.92,-3.7,18.49
8322.0,0.76,-3.78,18.24
8335.0,0.61,-3.73,17.68
8347.0,0.67,-3.61,17.25
8360.0,0.82,-3.48,16.86
8373.0,0.87,-3.29,16.5
8386.0,0.82,-3.01,16.19
8399.0,0.82,-2.79,15.83
8412.0,0.79,-2.72,15.71
8425.0,0.67,-2.71,15.52
8437.0,0.59,-2.6,14.52
8450.0,0.51,-2.27,13.3
8463.0,0.63,-1.84,12.41
8476.0,0.85,-1.42,11.61
8489.0,1.24,-0.97,10.7
8502.0,1.5,-0.68,9.97
8515.0,1.53,-0.76,9.67
8527.0,1.45,-1.15,9.68
8540.0,1.3,-1.51,9.4
8553.0,1.3,-1.71,9.23
8566.0,1.53,-1.71,8.94
8579.0,1.48,-1.62,8.56
8592.0,1.13,-1.6,7.99
8605.0,0.65,-1.61,7.17
8617.0,0.02,-1.61,6.54
8630.0,-0.39,-1.61,6.16
8643.0,-0.43,-1.54,5.8
8656.0,-0.22,-1.29,5.41
8669.0,-0.07,-1.05,5.12
8682.0,0.05,-0.95,4.7
8695.0,-0.02,-0.89,4.71
8708.0,-0.0,-0.69,4.72
8720.0,0.15,-0.28,4.32
8733.0,0.37,0.09,4.05
8746.0,0.55,0.32,3.85
8759.0,0.61,0.4,3.6
8772.0,0.42,0.42,3.28
8785.0,0.15,0.36,2.99
8798.0,0.03,0.39,2.73
8810.0,-0.08,0.58,2.51
8823.0,-0.31,0.85,2.07
8836.0,-0.44,1.12,1.7
8849.0,-0.01,1.12,2.14
8862.0,0.82,0.86,3.74
8875.0,1.36,0.29,5.39
8887.0,1.49,-0.26,6.19
8900.0,1.23,-0.6,6.04
8913.0,0.69,-0.59,5.79
8926.0,0.49,-0.43,5.58
8939.0,0.54,-0.44,5.81
8952.0,0.96,-0.76,6.61
8965.0,1.22,-1.39,7.63
8977.0,0.76,-1.99,8.5
8990.0,-0.29,-2.12,8.69
9003.0,-0.87,-1.9,8.48
9016.0,-0.49,-1.73,9.15
9029.0,0.77,-1.75,10.38
9042.0,1.85,-1.84,11.61
9055.0,2.07,-2.06,12.43
9068.0,1.29,-2.57,13.31
9080.0,0.14,-3.14,14.18
9093.0,-0.88,-3.48,14.59
9106.0,-0.97,-3.5,14.58
9119.0,-0.12,-3.18,14.73
9132.0,1.02,-2.85,14.78
9145.0,1.85,-2.71,15.37
9158.0,1.77,-2.73,15.79
9170.0,1.07,-2.96,15.81
9183.0,0.43,-3.21,15.74
9196.0,-0.03,-3.29,15.47
9209.0,-0.02,-2.92,15.09
9222.0,0.47,-2.44,15.13
9235.0,1.03,-2.1,15.65
9248.0,1.03,-2.0,15.79
9260.0,0.71,-2.27,16.17
9273.0,0.18,-2.81,16.38
9286.0,-0.13,-3.17,16.4
9299.0,-0.03,-3.21,16.5
9312.0,0.27,-3.01,16.44
9325.0,0.51,-2.9,16.27
9338.0,0.84,-3.09,16.55
9351.0,1.07,-3.42,17.17
9363.0,0.96,-3.59,17.35
9376.0,0.7,-3.53,17.06
9389.0,0.52,-3.29,16.36
9402.0,0.47,-3.07,15.66
9415.0,0.68,-2.94,15.1
9428.0,1.16,-2.83,14.43
9441.0,1.49,-2.67,13.75
9453.0,1.63,-2.44,12.91
9466.0,1.54,-2.24,11.87
9479.0,1.24,-1.92,10.39
9492.0,1.0,-1.63,9.0
9505.0,0.91,-1.24,7.7
9518.0,0.91,-0.91,6.64
9531.0,0.88,-0.58,5.57
9543.0,0.81,-0.21,4.65
9556.0,0.71,0.09,4.3
9569.0,0.68,0.38,3.92
9582.0,0.78,0.62,3.42
9595.0,1.0,0.76,2.91
9608.0,1.01,0.84,2.66
9620.0,0.79,0.74,2.48
9633.0,0.36,0.57,2.55
9646.0,0.13,0.37,2.71
9659.0,0.05,0.23,2.86
9672.0,0.15,0.02,2.97
9685.0,0.4,-0.33,3.25
9698.0,0.38,-0.57,3.3
9710.0,0.12,-0.31,3.03
9723.0,0.01,0.11,2.77
9736.0,0.06,0.55,2.57
9749.0,0.15,0.77,2.58
9762.0,0.19,0.94,2.79
9775.0,0.4,1.16,2.86
9787.0,0.76,1.19,3.33
9800.0,0.98,0.95,4.1
9813.0,1.4,0.55,5.43
9826.0,1.47,0.02,6.84
9839.0,0.86,-0.22,7.12
9852.0,0.16,-0.17,6.2
9865.0,-0.3,0.16,5.26
9877.0,0.16,0.39,6.0
9890.0,1.19,-0.03,8.07
9903.0,1.95,-0.88,10.11
9916.0,2.06,-1.43,10.42
9929.0,0.67,-0.77,8.91
9942.0,0.08,0.26,7.66
9954.0,0.49,0.34,8.71
9967.0,1.47,-0.7,11.54
9980.0,1.69,-1.81,13.77
9993.0,1.27,-2.86,15.07
10006.0,-0.01,-2.83,14.46
10019.0,-0.89,-2.39,13.42
10032.0,-0.79,-2.14,13.26
10045.0,-0.04,-2.29,13.98
10057.0,0.35,-2.53,14.73
10070.0,0.31,-2.49,14.97
10083.0,0.14,-2.13,14.73
10096.0,0.38,-1.72,14.42
10109.0,1.19,-1.51,15.06
10122.0,1.78,-1.66,16.03
10135.0,1.51,-2.06,16.85
10147.0,0.99,-2.76,18.26
10160.0,0.68,-3.31,19.11
10173.0,0.52,-3.58,19.23
10186.0,0.39,-3.48,18.45
10199.0,0.28,-3.15,17.51
10212.0,0.29,-2.92,16.92
10225.0,0.57,-2.8,16.98
10237.0,1.06,-2.9,17.28
10250.0,1.52,-3.07,17.16
10263.0,1.75,-3.18,17.1
10276.0,1.84,-3.11,16.73
10289.0,1.68,-3.02,16.02
10302.0,1.45,-3.12,14.85
10315.0,1.15,-3.25,14.11
10327.0,0.92,-3.32,13.57
10340.0,0.82,-2.94,12.68
10353.0,0.82,-2.32,11.46
10366.0,0.96,-1.69,10.18
10379.0,1.2,-1.09,9.06
10392.0,1.48,-0.58,8.08
10405.0,1.64,-0.35,7.49
10417.0,1.48,-0.48,7.38
10430.0,1.38,-0.75,7.36
10443.0,1.31,-0.85,7.05
10456.0,1.26,-0.72,6.7
10469.0,1.2,-0.77,6.48
10482.0,0.87,-0.85,6.31
10495.0,0.63,-0.93,6.16
10507.0,0.53,-0.93,5.68
10520.0,0.47,-0.84,5.05
10533.0,0.45,-0.64,4.21
10546.0,0.41,-0.47,3.45
10559.0,0.28,-0.42,3.07
10572.0,0.11,-0.47,2.95
10585.0,-0.01,-0.48,2.92
10597.0,0.04,-0.44,2.98
10610.0,0.29,-0.32,3.03
10623.0,0.56,-0.12,3.02
10636.0,0.46,0.08,2.91
10649.0,0.19,0.37,2.73
10662.0,0.07,0.64,2.53
10675.0,-0.03,0.89,2.42
10687.0,0.12,1.16,2.4
10700.0,0.72,1.29,2.86
10713.0,1.61,1.04,4.33
10726.0,2.31,0.37,6.18
10739.0,2.21,-0.42,7.65
10752.0,1.19,-0.85,7.67
10765.0,0.07,-0.95,6.87
10777.0,-0.55,-0.89,6.21
10790.0,-0.07,-0.92,6.2
10803.0,1.01,-1.17,7.44
10816.0,1.99,-1.42,8.93
10829.0,1.73,-1.77,9.66
10842.0,1.19,-1.49,9.24
10855.0,0.81,-1.08,8.63
10867.0,0.58,-1.07,9.35
10880.0,0.54,-1.73,10.92
10893.0,0.32,-2.39,11.71
10906.0,-0.02,-2.53,11.59
10919.0,-0.31,-2.23,11.16
10932.0,-0.27,-2.05,11.27
10945.0,0.08,-1.94,12.16
10957.0,0.64,-2.23,13.49
10970.0,0.74,-2.58,14.71
10983.0,0.38,-2.77,15.38
10996.0,0.01,-2.62,15.42
11009.0,0.05,-2.28,15.4
11022.0,0.37,-2.13,15.71
11035.0,0.65,-2.06,16.35
11047.0,0.6,-2.45,17.53
11060.0,-0.05,-3.3,19.13
11073.0,-0.73,-3.96,19.61
11086.0,-0.75,-4.03,19.61
11099.0,-0.09,-3.59,19.41
11112.0,0.93,-3.09,18.66
11125.0,1.61,-2.74,18.06
11138.0,1.45,-2.75,17.5
11150.0,0.82,-2.85,16.85
11163.0,0.23,-2.96,16.25
11176.0,-0.28,-3.0,15.51
11189.0,-0.51,-2.84,14.72
11202.0,-0.34,-2.56,13.76
11215.0,0.09,-2.14,12.96
11228.0,0.43,-1.77,12.11
11240.0,0.93,-1.54,11.75
11253.0,1.31,-1.69,12.37
11266.0,1.64,-2.04,12.73
11279.0,1.77,-2.07,12.19
11292.0,1.92,-1.67,11.08
11305.0,2.08,-1.15,9.87
11318.0,2.25,-0.83,8.93
11330.0,2.35,-0.71,8.28
11343.0,2.11,-0.81,7.89
11356.0,1.65,-0.93,7.53
11369.0,1.2,-1.02,7.18
11382.0,0.92,-1.06,7.0
11395.0,0.78,-1.13,6.96
11408.0,0.89,-1.05,6.9
11421.0,1.1,-0.78,6.31
11433.0,1.07,-0.38,5.3
11446.0,0.87,0.07,4.29
11459.0,0.65,0.46,3.35
11472.0,0.58,0.71,2.68
11485.0,0.61,0.74,2.61
11498.0,0.47,0.57,2.79
11510.0,0.2,0.37,3.24
11523.0,0.01,0.18,3.61
11536.0,-0.04,-0.04,3.81
11549.0,0.12,-0.15,4.0
11562.0,0.27,-0.15,3.74
11575.0,0.44,0.08,3.38
11588.0,0.48,0.5,3.0
11600.0,0.31,0.98,2.59
11613.0,0.08,1.21,2.4
11626.0,0.12,1.31,2.62
11639.0,0.65,1.18,3.68
11652.0,1.1,0.77,5.03
11665.0,1.24,0.35,6.21
11677.0,1.23,0.07,7.01
11690.0,0.81,-0.11,6.96
11703.0,0.7,-0.34,6.93
11716.0,0.89,-0.49,6.82
11729.0,1.22,-0.84,7.07
11742.0,1.35,-1.43,8.04
11755.0,1.29,-1.91,8.69
11767.0,0.75,-1.75,8.8
11780.0,0.44,-1.32,8.68
11793.0,0.25,-1.03,8.58
11806.0,0.46,-1.4,9.11
11819.0,0.69,-2.08,9.97
11832.0,0.67,-2.5,11.02
11845.0,0.19,-2.75,11.85
11857.0,-0.27,-2.9,12.4
11870.0,-0.15,-2.92,12.81
11883.0,0.33,-2.85,13.19
11896.0,0.75,-2.86,13.92
11909.0,0.67,-2.93,14.86
11922.0,0.37,-3.08,15.91
11935.0,-0.22,-3.13,16.63
11948.0,-0.54,-3.31,17.15
11960.0,-0.39,-3.35,17.83
11973.0,0.1,-3.37,18.36
11986.0,0.39,-3.03,18.65
11999.0,0.58,-2.39,18.28
12012.0,0.9,-1.67,17.7
12025.0,1.18,-1.24,17.28
12038.0,1.27,-1.29,16.81
12050.0,1.18,-1.52,16.6
12063.0,0.97,-1.67,16.78
12076.0,0.82,-1.85,17.25
12089.0,0.68,-2.21,17.72
12102.0,0.46,-2.55,17.39
12115.0,0.17,-2.83,16.8
12128.0,-0.15,-3.1,15.96
12140.0,-0.45,-2.95,14.8
12153.0,-0.37,-2.25,13.59
12166.0,0.04,-1.31,12.19
12179.0,0.76,-0.75,11.31
12192.0,1.48,-0.7,11.24
12205.0,1.86,-1.23,11.77
12218.0,1.75,-1.86,11.93
12230.0,1.49,-2.1,11.35
12243.0,1.38,-1.81,10.31
12256.0,1.41,-1.2,8.99
12269.0,1.49,-0.82,8.07
12282.0,1.62,-0.83,7.64
12295.0,1.46,-1.13,7.63
12308.0,1.25,-1.42,7.67
12320.0,0.93,-1.61,7.72
12333.0,0.83,-1.51,7.37
12346.0,0.71,-1.18,6.56
12359.0,0.66,-0.72,5.78
12372.0,0.6,-0.33,4.99
12385.0,0.52,-0.29,4.47
12398.0,0.47,-0.31,4.4
12410.0,0.41,-0.44,4.4
12423.0,0.28,-0.52,4.5
12436.0,0.11,-0.56,4.6
12449.0,0.03,-0.41,4.2
12462.0,0.2,-0.07,3.35
12475.0,0.57,0.13,3.11
12488.0,0.83,-0.02,3.61
12500.0,0.87,-0.22,4.19
12513.0,0.69,-0.22,4.54
12526.0,0.51,0.1,4.3
12539.0,0.29,0.55,3.82
12552.0,0.08,0.9,3.33
12565.0,0.21,1.25,2.75
12578.0,0.77,1.54,2.58
12590.0,1.39,1.45,3.53
12603.0,2.02,0.99,5.32
12616.0,2.47,0.5,7.03
12629.0,2.15,0.13,7.22
12642.0,1.04,0.04,6.12
12655.0,0.17,0.07,4.95
12667.0,0.23,0.16,4.74
12680.0,1.1,-0.05,5.91
12693.0,2.13,-0.69,8.26
12706.0,2.68,-1.4,10.25
12719.0,2.45,-2.03,10.78
12732.0,1.28,-2.56,10.5
12745.0,-0.32,-2.71,9.77
12757.0,-1.4,-2.84,9.54
12770.0,-1.34,-3.05,10.51
12783.0,-0.51,-3.12,11.58
12796.0,0.91,-3.21,12.87
12809.0,1.96,-3.42,14.21
12822.0,1.84,-3.33,14.71
12835.0,1.18,-2.83,14.09
12848.0,1.21,-2.55,14.44
