timestamp,accX,accY,accZ
2.0,1.25,-1.13,10.41
15.0,0.95,-0.99,8.55
28.0,1.18,-1.23,10.27
41.0,1.21,-1.25,10.43
54.0,1.26,-1.17,10.29
67.0,1.23,-1.03,10.05
79.0,1.26,-0.91,9.71
92.0,1.33,-0.79,9.57
105.0,1.29,-0.79,9.8
118.0,1.29,-0.87,10.1
131.0,1.29,-0.89,10.13
144.0,1.24,-0.82,10.0
157.0,1.18,-0.78,9.79
169.0,1.13,-0.8,9.59
182.0,1.09,-0.83,9.25
195.0,1.04,-0.83,8.89
208.0,0.89,-0.9,8.62
221.0,0.77,-1.02,8.54
234.0,0.66,-1.02,8.33
247.0,0.59,-0.9,8.05
259.0,0.71,-1.03,7.35
272.0,0.96,-1.1,7.28
285.0,1.33,-1.22,7.34
298.0,1.22,-1.21,6.89
311.0,0.84,-1.24,5.87
324.0,0.41,-1.34,5.25
337.0,-0.09,-1.61,5.65
349.0,-0.76,-2.03,6.38
362.0,-1.21,-1.99,6.49
375.0,-0.76,-1.49,6.57
388.0,0.39,-0.98,7.23
401.0,1.53,-0.79,8.44
414.0,2.11,-0.93,9.56
427.0,1.87,-1.3,10.56
439.0,1.52,-1.56,11.4
452.0,1.26,-1.61,12.17
465.0,1.36,-1.67,12.87
478.0,1.56,-1.62,13.04
491.0,2.14,-1.49,12.84
504.0,2.84,-1.26,13.33
517.0,3.62,-0.87,13.52
529.0,3.46,-0.76,13.81
542.0,2.13,-1.44,14.1
555.0,0.33,-2.82,15.05
568.0,-1.03,-4.05,16.26
581.0,-1.49,-4.6,16.92
594.0,-1.1,-4.52,17.21
607.0,-0.46,-3.98,17.1
620.0,-0.04,-3.47,16.62
632.0,0.28,-3.4,16.57
645.0,0.36,-3.53,16.82
658.0,0.34,-3.47,16.29
671.0,0.39,-3.06,15.69
684.0,0.68,-2.81,15.27
697.0,0.76,-2.68,14.71
710.0,0.71,-2.54,14.13
722.0,0.69,-2.55,13.67
735.0,0.57,-2.6,12.96
748.0,0.45,-2.5,11.91
761.0,0.48,-2.15,10.79
774.0,0.48,-1.95,9.8
787.0,0.53,-1.32,8.7
800.0,0.69,-0.59,7.29
812.0,0.71,0.01,6.0
825.0,0.67,0.18,5.37
838.0,0.61,-0.17,6.0
851.0,0.63,-0.76,6.92
864.0,0.63,-1.16,7.1
877.0,0.56,-1.05,6.55
890.0,0.65,-0.69,5.88
902.0,0.97,-0.41,5.66
915.0,1.21,-0.18,5.48
928.0,1.3,0.16,5.04
941.0,1.39,0.56,4.42
954.0,1.4,0.93,3.9
967.0,1.4,1.22,3.59
979.0,1.65,1.24,3.53
992.0,1.84,1.04,4.0
1005.0,1.85,0.82,4.34
1018.0,1.72,0.47,4.75
1031.0,1.29,0.06,5.27
1044.0,0.86,-0.24,5.66
1057.0,0.42,-0.51,6.06
1069.0,0.21,-0.6,6.5
1082.0,0.25,-0.5,6.46
1095.0,0.64,-0.39,6.47
1108.0,1.04,-0.38,7.02
1121.0,1.3,-0.26,7.33
1134.0,1.39,-0.14,7.44
1147.0,1.22,-0.31,7.54
1159.0,0.88,-0.47,7.64
1172.0,0.5,-0.45,7.55
1185.0,0.51,-0.37,7.67
1198.0,0.93,-0.58,8.37
1211.0,1.22,-1.12,9.14
1224.0,1.07,-1.59,9.29
1237.0,0.41,-1.59,8.75
1249.0,-0.28,-1.13,8.18
1262.0,-0.15,-0.84,8.57
1275.0,0.8,-0.86,10.27
1288.0,1.69,-1.13,11.99
1301.0,1.76,-1.46,12.75
1314.0,1.5,-1.77,12.79
1327.0,0.72,-1.53,12.07
1339.0,0.3,-1.28,11.81
1352.0,0.33,-1.37,12.72
1365.0,0.64,-1.96,14.28
1378.0,0.7,-2.56,15.6
1391.0,0.14,-2.71,15.75
1404.0,-0.28,-2.58,15.37
1417.0,-0.33,-2.33,15.47
1430.0,0.11,-2.38,16.36
1442.0,0.64,-2.42,17.29
1455.0,1.1,-2.49,17.85
1468.0,1.26,-2.44,17.84
1481.0,1.22,-2.31,17.5
1494.0,1.03,-2.21,17.01
1507.0,0.86,-2.15,16.61
1520.0,0.8,-2.19,16.29
1532.0,0.68,-2.25,15.96
1545.0,0.47,-2.28,15.6
1558.0,0.45,-2.34,15.07
1571.0,0.41,-2.15,14.29
1584.0,0.31,-1.77,13.02
1597.0,0.29,-1.42,12.07
1610.0,0.2,-1.01,10.84
1622.0,0.08,-0.4,9.25
1635.0,0.25,-0.02,8.1
1648.0,0.35,0.04,7.59
1661.0,0.64,-0.3,7.78
1674.0,0.84,-0.69,8.18
1687.0,1.08,-1.0,8.62
1700.0,1.2,-1.27,8.97
1712.0,0.86,-1.6,8.9
1725.0,0.28,-1.77,8.36
1738.0,-0.21,-1.68,7.45
1751.0,-0.38,-1.27,6.8
1764.0,-0.11,-0.81,6.43
1777.0,0.37,-0.11,5.72
1790.0,0.89,0.55,5.09
1802.0,1.22,1.16,4.6
1815.0,1.6,1.62,4.23
1828.0,1.65,1.55,4.62
1841.0,1.55,1.16,5.22
1854.0,1.33,0.99,5.21
1867.0,0.91,0.9,5.06
1879.0,0.73,0.79,4.98
1892.0,0.69,0.78,5.08
1905.0,0.61,0.76,4.85
1918.0,0.59,0.72,4.75
1931.0,0.55,0.7,5.02
1944.0,0.48,0.78,4.99
1957.0,0.59,0.79,5.09
1969.0,0.99,0.5,5.87
1982.0,1.46,0.05,6.89
1995.0,1.63,-0.16,7.25
2008.0,1.41,-0.2,6.88
2021.0,0.86,-0.28,6.34
2034.0,0.22,-0.47,6.3
2046.0,-0.23,-0.66,6.65
2059.0,0.02,-0.91,7.43
2072.0,0.65,-1.02,8.23
2085.0,1.39,-1.13,8.74
2098.0,1.73,-1.37,9.32
2111.0,1.49,-1.52,9.86
2124.0,0.86,-1.55,10.08
2136.0,0.08,-1.53,9.87
2149.0,-0.36,-1.7,10.07
2162.0,-0.18,-2.03,11.03
2175.0,0.23,-2.25,12.38
2188.0,0.44,-2.36,13.49
2201.0,0.21,-2.29,13.91
2214.0,-0.29,-2.04,13.69
2227.0,-0.44,-2.01,13.63
2239.0,0.06,-2.05,14.14
2252.0,0.9,-2.05,15.05
2265.0,1.38,-2.04,15.84
2278.0,1.67,-2.17,16.27
2291.0,1.4,-2.18,16.22
2304.0,0.88,-2.14,15.83
2317.0,0.35,-2.29,15.77
2329.0,-0.01,-2.57,16.0
2342.0,0.15,-2.79,16.39
2355.0,0.44,-2.95,16.63
2368.0,0.51,-2.92,16.3
2381.0,0.38,-2.84,15.98
2394.0,0.26,-2.83,15.7
2407.0,0.43,-2.61,15.5
2419.0,0.68,-2.3,15.06
2432.0,0.7,-2.21,14.66
2445.0,0.86,-2.35,14.72
2458.0,1.05,-2.14,13.95
2471.0,0.88,-1.71,12.62
2484.0,0.73,-1.36,11.4
2497.0,0.84,-1.25,10.93
2509.0,0.99,-1.5,11.06
2522.0,0.91,-1.86,10.71
2535.0,0.59,-1.88,9.81
2548.0,0.43,-1.48,8.67
2561.0,0.5,-0.92,7.55
2574.0,0.69,-0.46,6.55
2587.0,0.98,-0.1,5.89
2599.0,1.38,-0.2,6.51
2612.0,1.44,-1.16,8.06
2625.0,0.99,-2.21,9.24
2638.0,0.08,-2.5,8.74
2651.0,-0.65,-1.9,6.96
2664.0,-0.75,-0.76,5.09
2677.0,-0.23,0.34,3.63
2690.0,0.29,1.1,2.86
2702.0,0.86,1.59,2.62
2715.0,1.51,1.54,3.23
2728.0,1.79,0.97,4.69
2741.0,1.63,0.44,5.6
2754.0,1.2,0.07,5.79
2767.0,0.49,-0.07,5.4
2779.0,0.03,-0.01,4.96
2792.0,0.13,0.18,4.92
2805.0,0.63,0.42,5.33
2818.0,1.2,0.48,6.01
2831.0,1.59,0.4,6.71
2844.0,1.71,0.12,7.19
2856.0,1.46,-0.13,7.15
2869.0,1.05,-0.33,6.88
2882.0,0.75,-0.41,6.72
2895.0,0.72,-0.34,6.87
2908.0,0.95,-0.36,7.23
2921.0,1.23,-0.46,7.74
2934.0,1.19,-0.45,7.73
2946.0,1.1,-0.33,7.35
2959.0,1.04,-0.3,7.78
2972.0,1.05,-0.5,8.96
2985.0,1.24,-0.89,9.98
2998.0,1.07,-1.14,10.52
3011.0,0.38,-1.23,10.2
3024.0,-0.27,-1.27,9.7
3037.0,-0.11,-1.37,10.25
3049.0,0.53,-1.65,11.59
3062.0,0.63,-1.77,12.43
3075.0,0.15,-1.7,12.29
3088.0,-0.34,-1.44,11.28
3101.0,-0.43,-1.1,10.46
3114.0,0.45,-1.18,12.0
3127.0,1.1,-1.66,14.22
3139.0,1.01,-2.14,15.3
3152.0,0.72,-2.3,15.45
3165.0,0.74,-2.09,15.43
3178.0,0.91,-1.81,15.76
3191.0,1.04,-1.76,16.28
3204.0,1.01,-2.01,17.01
3217.0,0.82,-2.2,17.38
3229.0,0.46,-2.42,17.58
3242.0,0.81,-2.37,17.77
3255.0,0.5,-2.91,17.67
3268.0,0.4,-3.2,17.73
3281.0,0.37,-3.22,17.43
3294.0,0.32,-2.88,16.54
3307.0,0.54,-2.21,15.42
3319.0,0.74,-1.51,14.17
3332.0,0.66,-1.29,13.35
3345.0,0.47,-1.45,12.96
3358.0,0.24,-1.64,12.88
3371.0,0.14,-1.55,12.44
3384.0,0.19,-1.22,11.48
3397.0,0.32,-0.96,10.69
3409.0,0.26,-0.66,9.59
3422.0,0.04,-0.4,8.5
3435.0,0.12,-0.45,8.33
3448.0,0.29,-0.88,8.64
3461.0,0.27,-1.0,8.29
3474.0,-0.06,-0.68,7.1
3487.0,-0.51,-0.28,5.74
3499.0,-0.95,-0.03,4.81
3512.0,-0.91,0.01,5.02
3525.0,-0.56,-0.16,5.85
3538.0,0.18,-0.43,6.9
3551.0,0.63,-0.47,7.23
3564.0,0.59,-0.11,6.39
3577.0,0.34,0.63,4.93
3589.0,0.23,1.3,3.79
3602.0,0.29,1.6,3.04
3615.0,0.48,1.63,3.47
3628.0,0.77,1.47,4.36
3641.0,0.82,1.23,5.12
3654.0,0.91,0.84,5.81
3667.0,0.84,0.62,6.06
3679.0,0.61,0.62,6.01
3692.0,0.25,0.72,5.87
3705.0,0.06,0.86,5.78
3718.0,0.18,0.97,6.07
3731.0,0.68,0.92,6.78
3744.0,1.18,0.89,7.48
3756.0,1.51,1.01,7.62
3769.0,1.57,1.02,7.41
3782.0,1.56,0.8,7.87
3795.0,1.34,0.61,8.32
3808.0,1.02,0.35,8.74
3821.0,0.74,0.15,8.94
3833.0,0.49,-0.08,8.73
3846.0,0.53,-0.29,8.52
3859.0,0.73,-0.37,8.42
3872.0,0.58,-0.27,8.35
3885.0,0.66,-0.11,7.96
3898.0,0.77,0.06,7.9
3911.0,0.67,0.09,8.37
3923.0,0.62,-0.21,8.91
3936.0,0.56,-0.76,9.99
3949.0,0.26,-1.21,10.7
3962.0,0.02,-1.0,10.36
3975.0,-0.23,-0.59,9.8
3988.0,-0.15,-0.31,9.73
4001.0,0.51,-0.4,10.72
4014.0,1.44,-0.55,11.94
4026.0,1.85,-0.78,13.04
4039.0,1.67,-1.06,13.66
4052.0,1.22,-1.18,13.78
4065.0,0.75,-1.27,13.89
4078.0,0.3,-1.67,14.57
4091.0,0.09,-2.12,15.72
4104.0,-0.09,-2.62,16.62
4116.0,-0.25,-2.99,17.32
4129.0,-0.42,-3.16,17.53
4142.0,-0.52,-2.99,16.88
4155.0,-0.4,-2.8,16.69
4168.0,-0.15,-2.83,16.64
4181.0,-0.09,-2.97,16.76
4194.0,-0.2,-3.07,16.5
4207.0,-0.41,-2.78,15.48
4219.0,-0.35,-2.26,14.3
4232.0,-0.26,-1.82,13.38
4245.0,-0.01,-1.58,12.77
4258.0,0.5,-1.6,12.76
4271.0,1.16,-1.64,13.12
4284.0,1.2,-1.74,13.38
4297.0,0.86,-1.7,12.86
4309.0,0.41,-1.37,11.67
4322.0,0.06,-0.9,10.65
4335.0,-0.16,-0.34,9.52
4348.0,-0.28,0.18,8.55
4361.0,-0.17,0.47,8.03
4374.0,0.23,0.5,7.99
4387.0,0.47,0.2,8.31
4399.0,0.61,0.07,8.54
4412.0,0.94,0.02,8.65
4425.0,1.16,-0.11,9.06
4438.0,1.12,-0.23,8.79
4451.0,0.69,-0.14,7.88
4464.0,0.4,0.17,6.86
4477.0,0.13,0.42,6.61
4489.0,-0.13,0.47,6.26
4502.0,-0.3,0.37,6.14
4515.0,0.01,0.47,5.96
4528.0,0.53,0.69,5.64
4541.0,1.09,0.99,5.2
4554.0,1.33,1.28,5.08
4566.0,1.47,1.36,4.48
4579.0,1.07,1.36,3.97
4592.0,0.57,1.22,3.84
4605.0,0.09,1.01,3.84
4618.0,-0.27,0.72,3.97
4631.0,-0.57,0.49,4.08
4644.0,-0.41,0.27,4.52
4656.0,-0.06,0.2,5.23
4669.0,0.25,0.36,5.35
4682.0,0.44,0.67,5.12
4695.0,0.75,0.72,5.45
4708.0,1.13,0.41,6.38
4721.0,1.27,-0.02,7.11
4733.0,1.35,-0.35,7.7
4746.0,1.19,-0.5,7.82
4759.0,0.66,-0.47,7.62
4772.0,0.09,-0.39,7.23
4785.0,0.11,-0.29,7.18
4798.0,0.95,-0.7,8.9
4811.0,1.56,-1.19,10.62
4823.0,1.48,-1.41,11.22
4836.0,0.6,-1.54,11.07
4849.0,0.54,-1.61,11.66
4862.0,0.84,-1.67,12.6
4875.0,1.13,-1.82,13.52
4888.0,1.06,-1.72,13.69
4901.0,1.06,-1.64,13.58
4913.0,1.24,-1.56,14.11
4926.0,1.33,-1.92,15.39
4939.0,1.2,-2.35,16.43
4952.0,0.79,-2.82,16.9
4965.0,-0.05,-2.71,16.39
4978.0,-0.36,-2.19,15.57
4991.0,-0.02,-1.79,15.51
5004.0,0.38,-1.65,16.04
5016.0,0.3,-1.78,16.28
5029.0,-0.25,-1.9,16.0
5042.0,-0.71,-1.86,15.39
5055.0,-0.5,-1.69,15.14
5068.0,0.15,-1.57,15.59
5081.0,0.58,-1.78,16.16
5094.0,0.74,-2.05,16.62
5106.0,0.49,-2.13,16.21
5119.0,0.07,-2.1,15.25
5132.0,-0.07,-2.03,14.7
5145.0,0.09,-1.89,14.39
5158.0,0.23,-1.71,13.89
5171.0,0.23,-1.48,12.95
5184.0,0.28,-1.3,11.74
5196.0,0.28,-1.01,10.49
5209.0,0.26,-0.51,9.15
5222.0,0.31,-0.18,8.33
5235.0,0.39,0.02,7.79
5248.0,0.5,0.15,7.56
5261.0,0.55,-0.14,7.86
5274.0,0.43,-0.71,8.1
5286.0,0.15,-1.02,7.73
5299.0,-0.1,-0.88,6.89
5312.0,-0.16,-0.5,6.17
5325.0,-0.03,-0.07,5.83
5338.0,0.27,0.37,5.54
5351.0,0.46,0.69,5.21
5364.0,0.65,1.0,4.92
5376.0,0.81,1.18,4.72
5389.0,0.95,1.16,4.81
5402.0,1.06,1.02,5.24
5415.0,0.89,0.95,5.31
5428.0,0.68,1.01,4.89
5441.0,0.58,1.09,4.67
5454.0,0.58,0.97,4.88
5466.0,0.69,0.61,5.43
5479.0,0.64,0.29,5.88
5492.0,0.54,0.21,6.04
5505.0,0.48,0.3,6.03
5518.0,0.51,0.47,5.9
5531.0,0.81,0.52,6.18
5543.0,1.07,0.6,6.38
5556.0,1.15,0.6,6.24
5569.0,1.1,0.46,6.06
5582.0,0.87,0.18,6.07
5595.0,0.68,-0.0,6.27
5608.0,0.73,-0.35,6.78
5620.0,0.67,-0.75,7.18
5633.0,0.76,-0.94,7.37
5646.0,0.89,-0.98,7.69
5659.0,1.05,-1.03,8.49
5672.0,0.64,-1.14,9.43
5685.0,0.3,-1.08,9.65
5698.0,0.02,-0.43,9.18
5710.0,0.43,0.36,8.92
5723.0,1.56,0.46,10.14
5736.0,2.41,-0.19,11.83
5749.0,2.03,-0.87,12.68
5762.0,1.34,-1.29,13.23
5775.0,0.69,-1.34,13.22
5788.0,0.13,-1.36,13.02
5800.0,0.04,-1.26,13.21
5813.0,0.28,-1.03,13.5
5826.0,0.71,-0.94,13.78
5839.0,0.9,-0.96,13.99
5852.0,0.79,-1.02,14.03
5865.0,0.48,-1.4,14.36
5878.0,0.06,-1.95,14.78
5890.0,-0.25,-2.23,15.08
5903.0,-0.4,-2.23,15.26
5916.0,-0.3,-2.07,15.31
5929.0,-0.01,-1.77,15.34
5942.0,0.41,-1.71,15.73
5955.0,0.67,-2.06,16.46
5968.0,0.73,-2.6,17.25
5981.0,0.59,-2.83,17.18
5993.0,0.25,-2.7,16.55
6006.0,0.05,-2.54,15.93
6019.0,0.16,-2.37,15.66
6032.0,0.2,-2.37,15.39
6045.0,-0.07,-2.23,14.61
6058.0,-0.29,-2.01,13.47
6071.0,-0.07,-1.28,11.71
6083.0,0.45,-0.36,9.78
6096.0,1.29,0.09,9.71
6109.0,2.21,-0.85,11.99
6122.0,2.09,-2.31,13.46
6135.0,1.22,-2.94,12.6
6148.0,0.39,-2.22,9.99
6161.0,0.28,-1.14,7.54
6173.0,0.46,-0.22,6.13
6186.0,0.81,0.27,5.69
6199.0,1.05,0.34,5.67
6212.0,1.16,0.08,6.17
6225.0,1.2,-0.43,7.07
6238.0,0.95,-0.93,7.73
6251.0,0.6,-0.99,7.41
6263.0,0.32,-0.47,5.9
6276.0,0.41,0.41,4.38
6289.0,0.69,1.19,3.51
6302.0,0.96,1.58,3.31
6315.0,1.14,1.28,4.01
6328.0,0.96,0.65,5.12
6340.0,0.88,0.04,6.13
6353.0,0.73,-0.35,6.71
6366.0,0.46,-0.34,6.65
6379.0,0.11,-0.15,6.19
6392.0,-0.16,0.09,5.53
6405.0,-0.24,0.26,5.49
6418.0,-0.12,0.23,5.9
6430.0,0.02,0.21,6.2
6443.0,0.24,0.45,6.24
6456.0,0.73,0.71,6.36
6469.0,1.18,0.74,6.59
6482.0,1.53,0.42,7.08
6495.0,1.58,0.01,7.16
6508.0,1.1,-0.15,6.57
6520.0,0.49,-0.22,5.52
6533.0,0.09,-0.41,5.09
6546.0,-0.08,-0.69,5.45
6559.0,0.08,-0.79,6.13
6572.0,0.69,-0.84,6.78
6585.0,1.24,-0.88,7.35
6598.0,1.73,-1.19,7.84
6610.0,1.69,-1.66,8.39
6623.0,0.9,-2.14,9.15
6636.0,-0.32,-2.26,8.95
6649.0,-1.52,-1.95,7.88
6662.0,-1.09,-1.78,8.0
6675.0,0.68,-1.77,9.77
6688.0,2.29,-2.08,12.51
6700.0,3.28,-2.93,14.82
6713.0,2.9,-3.56,16.09
6726.0,1.39,-3.26,15.14
6739.0,0.42,-2.91,14.16
6752.0,0.21,-3.02,14.68
6765.0,0.69,-3.42,15.82
6778.0,0.85,-3.65,16.25
6790.0,1.3,-3.26,15.83
6803.0,0.87,-3.1,19.61
6816.0,-0.12,-7.1,19.61
6829.0,0.34,-8.63,19.61
6842.0,0.25,-5.32,19.61
6855.0,-0.1,-1.45,12.41
6868.0,-0.4,0.14,10.75
6881.0,0.1,-0.63,12.06
6893.0,0.24,-1.57,13.27
6906.0,1.03,-1.96,14.62
6919.0,1.73,-2.43,15.97
6932.0,2.01,-3.23,16.99
6945.0,1.76,-3.88,17.17
6958.0,0.89,-4.05,16.06
6971.0,0.33,-3.74,14.5
6983.0,0.29,-3.07,13.0
6996.0,0.46,-2.29,11.52
7009.0,0.88,-1.48,10.29
7022.0,1.46,-0.81,9.37
7035.0,1.99,-0.81,9.54
7048.0,2.31,-1.37,10.14
7061.0,1.86,-2.05,10.59
7073.0,1.05,-2.45,10.07
7086.0,0.41,-2.3,8.78
7099.0,0.07,-1.85,7.52
7112.0,-0.14,-1.22,6.15
7125.0,-0.28,-0.6,5.04
7138.0,-0.15,0.08,4.0
7151.0,-0.19,0.7,3.56
7163.0,-0.03,1.08,3.44
7176.0,0.2,0.87,4.3
7189.0,0.27,0.39,5.24
7202.0,-0.01,0.0,5.59
7215.0,-0.36,0.03,5.19
7228.0,-0.54,0.35,4.38
7241.0,-0.44,0.68,3.63
7253.0,-0.0,0.95,3.32
7266.0,0.26,1.24,3.1
7279.0,0.53,1.3,3.26
7292.0,0.79,0.99,4.18
7305.0,0.79,0.32,5.56
7318.0,0.37,-0.24,6.45
7330.0,-0.29,-0.33,6.32
7343.0,-0.55,-0.02,5.67
7356.0,-0.56,0.58,4.96
7369.0,0.13,1.08,4.67
7382.0,1.24,1.15,5.8
7395.0,2.39,0.63,7.8
7408.0,3.06,0.05,9.54
7420.0,2.79,-0.45,9.67
7433.0,1.39,-0.35,8.25
7446.0,0.2,0.08,6.4
7459.0,-0.8,0.45,5.28
7472.0,-1.31,0.69,4.89
7485.0,-0.3,0.24,6.09
7498.0,0.84,-0.49,8.14
7510.0,1.37,-1.29,9.77
7523.0,0.9,-1.95,10.5
7536.0,-0.05,-2.12,10.46
7549.0,-0.59,-2.08,10.15
7562.0,-0.01,-2.32,11.36
7575.0,0.83,-2.62,13.44
7588.0,1.7,-3.32,15.0
7600.0,1.59,-3.53,15.44
7613.0,1.22,-3.17,14.84
7626.0,0.97,-2.57,13.92
7639.0,0.75,-1.8,13.01
7652.0,1.2,-1.49,13.1
7665.0,1.87,-1.43,13.97
7678.0,2.06,-1.49,14.25
7690.0,1.54,-1.64,13.97
7703.0,0.89,-1.8,13.53
7716.0,0.3,-1.82,13.36
7729.0,0.09,-1.88,13.49
7742.0,0.27,-2.02,14.17
7755.0,0.4,-2.31,14.93
7768.0,0.23,-2.6,15.45
7781.0,-0.11,-2.63,15.39
7793.0,-0.18,-2.49,15.32
7806.0,0.06,-2.29,15.44
7819.0,0.35,-2.26,15.63
7832.0,0.61,-2.59,16.6
7845.0,0.46,-3.13,17.27
7858.0,0.03,-3.39,17.22
7871.0,-0.2,-3.19,16.46
7883.0,-0.2,-2.86,15.67
7896.0,-0.22,-2.56,14.87
7909.0,-0.41,-2.28,13.68
7922.0,-0.6,-1.81,12.0
7935.0,-0.34,-1.26,10.5
7948.0,0.39,-0.56,9.24
7961.0,0.99,0.05,8.06
7973.0,1.51,0.28,7.72
7986.0,1.84,0.05,8.27
7999.0,1.96,-0.62,9.02
8012.0,1.77,-1.17,9.17
8025.0,1.31,-1.35,8.3
8038.0,0.71,-1.2,7.09
8051.0,0.21,-1.09,6.52
8063.0,-0.11,-0.99,6.22
8076.0,-0.15,-0.86,6.1
8089.0,-0.11,-0.83,6.35
8102.0,-0.06,-0.7,6.2
8115.0,-0.06,-0.45,5.51
8128.0,0.02,0.01,4.66
8141.0,0.34,0.5,3.95
8154.0,0.4,1.1,3.41
8166.0,0.5,1.39,3.0
8179.0,0.56,1.26,3.34
8192.0,0.43,0.96,3.6
8205.0,0.18,0.75,3.92
8218.0,-0.18,0.64,4.23
8231.0,-0.34,0.66,4.49
8243.0,-0.13,0.56,5.15
8256.0,0.47,0.33,6.25
8269.0,0.89,0.15,7.14
8282.0,1.01,0.14,7.35
8295.0,0.78,0.28,6.88
8308.0,0.71,0.38,6.27
8321.0,0.9,0.19,6.51
8333.0,1.03,-0.4,7.34
8346.0,0.64,-0.87,7.61
8359.0,0.13,-0.8,7.29
8372.0,0.08,-0.48,6.97
8385.0,0.55,-0.08,7.07
8398.0,1.23,-0.02,7.68
8410.0,1.53,-0.37,8.43
8423.0,1.25,-0.93,8.94
8436.0,0.52,-1.31,9.37
8449.0,-0.41,-1.5,9.36
8462.0,-0.97,-1.69,9.56
8475.0,-0.73,-1.86,10.45
8488.0,0.18,-2.08,11.88
8501.0,0.87,-2.22,12.77
8513.0,1.0,-2.26,12.66
8526.0,0.65,-2.27,12.24
8539.0,0.21,-2.08,11.79
8552.0,0.2,-2.02,11.84
8565.0,0.34,-2.36,12.82
8578.0,0.23,-2.87,13.76
8591.0,-0.03,-3.19,14.12
8603.0,0.13,-3.06,14.23
8616.0,3.65,-1.07,14.36
8629.0,-1.86,-2.8,19.61
8642.0,-0.51,-10.49,19.61
8655.0,1.68,-9.19,19.61
8668.0,-0.05,-4.34,19.38
8681.0,-0.4,-1.39,12.39
8693.0,-0.66,0.06,10.94
8706.0,-0.61,-0.28,11.51
8719.0,-0.27,-1.12,12.26
8732.0,0.24,-1.67,13.52
8745.0,0.75,-2.3,15.27
8758.0,0.3,-2.68,14.89
8771.0,-0.29,-2.75,13.86
8784.0,-0.14,-2.42,13.04
8796.0,0.27,-1.86,12.43
8809.0,0.78,-1.55,12.39
8822.0,0.9,-1.39,12.27
8835.0,0.62,-1.17,11.54
8848.0,0.23,-0.8,10.43
8861.0,-0.15,-0.51,9.47
8874.0,-0.31,-0.27,8.46
8886.0,-0.51,-0.18,7.9
8899.0,-0.4,-0.21,7.59
8912.0,0.08,-0.0,7.22
8925.0,0.78,0.29,6.82
8938.0,1.22,0.38,6.86
8951.0,1.42,-0.05,7.83
8964.0,1.06,-0.85,8.79
8976.0,0.23,-1.4,8.42
8989.0,-0.42,-1.31,7.3
9002.0,-0.48,-0.84,6.34
9015.0,-0.16,-0.33,5.68
9028.0,0.36,0.1,5.21
9041.0,0.77,0.59,4.67
9054.0,1.04,0.95,4.41
9066.0,1.1,0.86,4.65
9079.0,0.85,0.58,4.7
9092.0,0.53,0.47,4.32
9105.0,0.28,0.43,3.9
9118.0,0.13,0.53,3.74
9131.0,0.09,0.71,3.81
9144.0,0.34,0.77,4.15
9156.0,0.68,0.64,5.21
9169.0,0.83,0.52,5.92
9182.0,0.95,0.46,6.33
9195.0,1.09,0.42,6.68
9208.0,1.37,0.44,7.12
9221.0,1.65,0.41,7.58
9233.0,1.84,0.06,8.4
9246.0,1.68,-0.51,9.08
9259.0,0.7,-1.01,9.06
9272.0,-0.41,-1.08,8.6
9285.0,-0.52,-0.84,8.16
9298.0,0.51,-0.5,8.3
9311.0,1.76,-0.28,8.85
9323.0,2.54,-0.21,9.23
9336.0,2.59,-0.45,9.56
9349.0,1.77,-0.74,9.75
9362.0,0.62,-1.13,10.03
9375.0,-0.0,-1.5,10.49
9388.0,0.34,-1.66,11.09
9401.0,1.24,-1.5,11.42
9413.0,1.95,-1.31,11.45
9426.0,2.26,-1.22,11.81
9439.0,2.0,-1.06,11.84
9452.0,1.57,-1.02,11.77
9465.0,1.25,-1.44,12.64
9478.0,0.93,-2.14,14.11
9491.0,0.62,-2.81,14.98
9503.0,0.45,-2.89,15.03
9516.0,0.65,-2.44,14.38
9529.0,0.87,-2.0,13.83
9542.0,0.95,-1.81,13.85
9555.0,0.66,-1.89,14.15
9568.0,0.15,-2.19,14.38
9581.0,-0.28,-2.29,14.11
9594.0,-0.29,-2.26,14.02
9606.0,0.08,-2.26,14.36
9619.0,0.4,-2.36,14.72
9632.0,0.39,-2.42,14.75
9645.0,0.21,-2.38,14.46
9658.0,0.1,-2.45,14.49
9671.0,0.18,-2.68,15.09
9684.0,0.24,-2.94,15.41
9696.0,0.45,-2.86,15.07
9709.0,0.72,-2.43,14.69
9722.0,1.33,-2.16,14.65
9735.0,1.81,-1.95,14.59
9748.0,1.61,-1.91,13.87
9761.0,0.89,-1.73,12.59
9774.0,0.35,-1.3,11.11
9786.0,0.17,-0.89,9.98
9799.0,0.07,-0.42,9.07
9812.0,0.26,-0.08,8.26
9825.0,0.42,-0.01,7.72
9838.0,0.66,-0.48,8.26
9851.0,0.67,-1.31,9.09
9864.0,0.52,-2.01,9.59
9876.0,0.12,-2.1,9.1
9889.0,-0.27,-1.59,7.79
9902.0,-0.54,-0.91,6.47
9915.0,-0.45,-0.24,5.46
9928.0,-0.21,0.33,4.71
9941.0,0.09,0.95,4.12
9954.0,0.44,1.6,3.47
9966.0,0.82,2.0,3.06
9979.0,1.15,2.02,3.45
9992.0,1.39,1.68,4.49
10005.0,1.28,1.1,5.39
10018.0,0.69,0.63,5.54
10031.0,-0.01,0.48,5.13
10043.0,-0.29,0.78,4.3
10056.0,-0.25,1.2,3.66
10069.0,0.18,1.36,3.84
10082.0,0.56,1.2,4.52
10095.0,0.75,1.0,5.22
10108.0,0.87,0.7,5.88
10121.0,1.08,0.35,6.54
10133.0,1.43,0.0,7.18
10146.0,1.7,-0.35,7.73
10159.0,1.75,-1.01,8.25
10172.0,1.23,-1.61,8.55
10185.0,0.28,-1.71,8.56
10198.0,-0.47,-1.32,8.0
10211.0,-0.55,-0.89,7.33
10223.0,0.09,-0.76,7.75
10236.0,1.26,-0.98,8.65
10249.0,1.96,-1.33,9.59
10262.0,1.82,-2.0,10.59
10275.0,1.2,-2.77,11.41
10288.0,0.09,-2.79,11.29
10301.0,-0.41,-2.32,10.82
10313.0,-0.59,-2.03,10.39
10326.0,-0.55,-1.94,10.3
10339.0,-0.14,-2.17,11.19
10352.0,0.31,-2.6,12.65
10365.0,0.14,-2.84,13.01
10378.0,-0.44,-2.79,12.45
10391.0,-0.8,-2.66,11.97
10404.0,-0.51,-2.58,12.31
10416.0,0.43,-2.7,13.47
10429.0,1.34,-2.85,14.65
10442.0,1.89,-2.89,15.23
10455.0,2.01,-2.63,14.85
10468.0,1.88,-2.24,14.14
10481.0,1.82,-2.0,14.04
10494.0,1.79,-2.1,14.49
10506.0,1.48,-2.41,15.08
10519.0,1.09,-2.9,15.89
10532.0,0.64,-3.55,16.75
10545.0,0.4,-3.83,17.12
10558.0,0.64,-3.63,16.96
10571.0,1.08,-3.27,16.82
10584.0,1.26,-3.14,16.4
10596.0,1.22,-3.21,16.13
10609.0,1.08,-3.3,16.02
10622.0,0.91,-3.29,15.69
10635.0,0.83,-3.12,14.92
10648.0,0.8,-2.73,13.87
10661.0,0.56,-2.28,12.41
10674.0,0.12,-1.86,10.93
10686.0,-0.32,-1.44,9.55
10699.0,-0.34,-0.98,8.48
10712.0,-0.03,-0.33,7.53
10725.0,0.65,0.06,7.0
10738.0,1.34,-0.25,7.91
10751.0,1.41,-1.0,9.02
10764.0,0.8,-1.31,8.62
10776.0,0.09,-1.19,7.42
10789.0,-0.42,-0.86,6.39
10802.0,-0.48,-0.43,5.66
10815.0,-0.19,0.07,4.99
10828.0,0.3,0.39,5.04
10841.0,0.84,0.19,5.85
10854.0,1.38,-0.12,6.94
10866.0,1.4,-0.14,6.94
10879.0,0.82,0.2,5.69
10892.0,0.29,0.69,4.33
10905.0,0.03,1.03,3.82
10918.0,0.39,1.12,3.28
10931.0,0.74,1.08,3.34
10944.0,0.99,0.92,3.97
10956.0,1.19,0.68,4.83
10969.0,1.2,0.52,5.61
10982.0,0.92,0.47,5.86
10995.0,0.53,0.57,5.59
11008.0,0.35,0.68,5.48
11021.0,0.52,0.75,5.55
11033.0,1.08,0.68,6.06
11046.0,1.73,0.4,6.85
11059.0,2.19,-0.09,7.75
11072.0,2.05,-0.4,8.37
11085.0,1.66,-0.48,8.38
11098.0,1.22,-0.4,8.26
11111.0,0.73,-0.27,7.81
11123.0,0.81,-0.28,7.87
11136.0,1.41,-0.65,8.97
11149.0,1.85,-1.23,10.07
11162.0,1.57,-1.71,10.49
11175.0,0.62,-1.88,10.05
11188.0,-0.28,-1.72,9.55
11201.0,-0.59,-1.67,9.39
11213.0,-0.86,-1.58,9.35
11226.0,-0.96,-1.51,9.43
11239.0,-0.98,-1.43,9.96
11252.0,-0.56,-1.48,10.8
11265.0,-0.14,-1.52,12.0
11278.0,0.33,-1.57,12.7
11291.0,0.48,-1.5,12.91
11304.0,0.28,-1.33,12.74
11316.0,0.03,-1.17,12.6
11329.0,-0.2,-1.03,12.68
11342.0,-0.04,-0.96,13.06
11355.0,0.4,-0.78,13.43
11368.0,0.91,-0.67,13.95
11381.0,1.51,-0.53,14.68
11394.0,2.12,-0.51,15.17
11406.0,2.65,-0.67,15.71
11419.0,2.78,-0.88,16.36
11432.0,2.73,-1.48,16.79
11445.0,1.98,-1.85,16.75
11458.0,1.47,-2.2,16.87
11471.0,1.08,-2.7,17.28
11484.0,0.79,-3.23,17.45
11496.0,0.37,-3.48,17.2
11509.0,0.06,-3.33,16.39
11522.0,-0.09,-2.9,15.1
11535.0,0.14,-2.51,14.19
11548.0,0.7,-2.26,13.8
11561.0,1.1,-1.99,13.21
11574.0,0.99,-1.66,11.97
11586.0,0.65,-1.33,10.76
11599.0,0.32,-1.21,10.25
11612.0,0.0,-1.24,9.93
11625.0,-0.32,-1.17,9.36
11638.0,-0.55,-0.91,8.42
11651.0,-0.48,-0.46,7.3
11664.0,-0.06,-0.3,7.15
11677.0,0.32,-0.68,8.44
11689.0,0.23,-1.23,9.27
11702.0,-0.5,-1.59,9.1
11715.0,-1.26,-1.33,7.94
11728.0,-1.7,-0.73,6.39
11741.0,-1.48,-0.01,5.16
11754.0,-0.59,0.56,4.79
11767.0,0.44,0.99,4.93
11779.0,1.16,1.24,5.14
11792.0,1.46,1.46,5.1
11805.0,1.19,1.64,4.57
11818.0,0.7,1.71,4.02
11831.0,0.52,1.71,3.84
11844.0,0.57,1.68,3.92
11857.0,0.84,1.56,4.32
11869.0,1.08,1.34,4.95
11882.0,1.13,1.15,5.31
11895.0,1.0,1.22,5.18
11908.0,0.91,1.38,5.0
11921.0,1.01,1.49,5.0
11934.0,1.37,1.45,5.46
11946.0,1.7,1.21,6.32
11959.0,1.77,0.9,6.93
11972.0,1.43,0.49,7.2
11985.0,1.14,0.05,7.46
11998.0,0.84,-0.36,7.6
12011.0,0.17,-0.62,7.56
12024.0,-0.62,-0.72,7.5
12036.0,-0.93,-0.86,7.71
12049.0,-0.86,-0.96,8.56
12062.0,-0.43,-0.95,9.19
12075.0,-0.11,-0.76,9.62
12088.0,0.1,-0.48,9.69
12101.0,0.09,-0.42,9.78
12114.0,-0.34,-0.48,9.82
12126.0,-0.96,-0.59,9.53
12139.0,-0.94,-0.56,9.32
12152.0,-0.31,-0.44,10.14
12165.0,0.84,-0.65,12.03
12178.0,1.38,-1.13,13.84
12191.0,1.09,-1.74,14.81
12204.0,0.3,-2.09,14.66
12217.0,-0.38,-1.92,13.64
12229.0,-0.76,-1.58,12.46
12242.0,-0.59,-1.24,11.85
12255.0,-0.11,-1.12,12.09
12268.0,0.58,-1.17,12.69
12281.0,0.98,-1.12,13.24
12294.0,1.08,-1.37,14.09
12307.0,0.68,-1.84,14.97
12319.0,0.16,-2.39,15.46
12332.0,0.03,-2.61,15.73
12345.0,0.33,-2.51,16.11
12358.0,0.65,-2.52,16.62
12371.0,0.77,-2.73,17.01
12384.0,0.68,-2.82,17.2
12397.0,0.46,-2.81,17.07
12409.0,0.31,-2.72,16.64
12422.0,0.2,-2.52,16.39
12435.0,0.21,-2.46,16.33
12448.0,0.05,-2.3,15.91
12461.0,-0.31,-2.01,15.05
12474.0,-0.44,-1.75,13.9
12487.0,-0.29,-1.58,13.32
12500.0,0.13,-1.46,12.7
12512.0,0.29,-1.24,11.78
12525.0,0.29,-0.95,10.66
12538.0,0.32,-0.5,9.39
12551.0,0.44,-0.1,8.27
12564.0,0.55,0.22,7.52
12577.0,0.73,0.12,7.7
12590.0,0.78,-0.58,8.46
12602.0,0.52,-1.12,8.56
12615.0,-0.02,-1.21,7.43
12628.0,-0.35,-1.03,6.5
12641.0,-0.18,-0.77,6.07
12654.0,-0.07,-0.58,5.9
12667.0,0.14,-0.23,5.58
12680.0,0.21,0.2,4.95
12692.0,0.19,0.58,4.22
12705.0,0.17,0.8,3.88
12718.0,0.06,0.69,3.95
12731.0,-0.24,0.51,3.8
12744.0,-0.42,0.5,3.58
12757.0,-0.3,0.56,3.37
12770.0,-0.02,0.53,3.44
12782.0,0.08,0.56,3.72
12795.0,0.04,0.64,3.96
12808.0,-0.11,0.67,4.11
12821.0,-0.13,0.75,4.25
12834.0,0.21,0.76,4.47
12847.0,0.92,0.67,5.29
