timestamp,accX,accY,accZ
2.0,1.8,-1.48,7.49
15.0,1.68,-1.12,5.68
28.0,2.27,-1.17,6.09
41.0,2.01,-0.86,5.6
54.0,1.61,-0.54,5.26
66.0,1.45,-0.4,5.13
79.0,1.53,-0.27,5.23
92.0,1.68,-0.03,5.16
105.0,1.73,0.26,5.08
118.0,1.61,0.61,5.03
131.0,1.23,0.85,4.87
144.0,0.74,0.97,4.68
156.0,0.48,0.86,5.01
169.0,0.52,0.7,5.27
182.0,0.86,0.63,5.23
195.0,1.33,0.48,5.28
208.0,1.82,0.17,5.73
221.0,2.27,-0.14,6.26
234.0,2.56,-0.21,6.46
246.0,2.46,0.02,5.99
259.0,1.84,0.4,5.39
272.0,0.99,0.48,5.58
285.0,0.59,0.29,6.26
298.0,0.78,-0.02,6.93
311.0,1.39,-0.31,7.44
323.0,2.3,-0.23,7.35
336.0,2.89,-0.0,6.67
349.0,3.05,0.36,6.05
362.0,2.32,0.46,6.19
375.0,1.53,0.18,7.42
388.0,0.98,-0.24,8.51
401.0,0.86,-0.57,9.53
413.0,0.87,-0.64,10.17
426.0,0.7,-0.85,10.26
439.0,0.9,-0.83,10.36
452.0,0.96,-0.73,10.47
465.0,1.17,-0.59,10.44
478.0,1.51,-0.58,10.17
491.0,2.35,-0.48,9.92
503.0,2.91,-0.37,9.96
516.0,2.68,-0.52,10.52
529.0,1.85,-0.83,11.17
542.0,0.96,-1.45,12.21
555.0,0.8,-2.15,13.61
568.0,1.38,-2.73,14.87
581.0,2.26,-2.75,15.28
593.0,2.72,-2.07,14.41
606.0,2.02,-1.21,13.23
619.0,0.67,-0.95,12.9
632.0,-0.25,-1.3,13.68
645.0,-0.26,-1.83,14.84
658.0,0.29,-2.34,15.5
671.0,1.1,-2.6,15.66
683.0,1.71,-2.35,14.96
696.0,1.69,-1.68,13.69
709.0,1.14,-0.94,12.68
722.0,0.12,-0.67,12.32
735.0,-0.67,-0.77,12.56
748.0,-0.86,-1.13,13.1
761.0,-0.42,-1.56,13.66
774.0,0.22,-1.88,13.91
786.0,0.89,-1.87,13.83
799.0,1.07,-1.73,13.67
812.0,0.53,-1.65,13.69
825.0,-0.15,-1.61,13.96
838.0,-0.76,-1.62,14.26
851.0,-0.97,-1.58,14.38
864.0,-0.56,-1.54,14.12
876.0,-0.34,-1.73,13.11
889.0,0.68,-1.82,13.2
902.0,1.98,-1.75,13.51
915.0,2.43,-1.71,13.62
928.0,2.01,-1.32,12.85
941.0,1.26,-0.88,11.81
954.0,0.69,-0.82,11.75
966.0,0.69,-0.94,11.89
979.0,1.08,-1.03,11.59
992.0,1.36,-0.91,10.8
1005.0,1.66,-0.25,9.47
1018.0,1.2,0.23,8.29
1031.0,0.68,0.33,8.05
1044.0,0.61,0.09,8.48
1056.0,0.85,-0.33,8.89
1069.0,1.28,-0.52,8.98
1082.0,1.37,-0.34,8.29
1095.0,1.14,0.08,7.29
1108.0,0.54,-0.25,7.41
1121.0,0.65,-0.93,8.59
1134.0,1.12,-1.46,9.0
1146.0,1.53,-1.37,8.5
1159.0,1.59,-0.65,7.28
1172.0,1.62,0.26,5.89
1185.0,1.43,0.85,4.75
1198.0,1.29,0.98,4.58
1211.0,1.29,0.8,5.08
1224.0,1.55,0.7,5.56
1236.0,1.77,0.78,5.46
1249.0,1.68,1.05,4.98
1262.0,1.49,1.37,4.3
1275.0,1.34,1.77,3.89
1288.0,1.09,1.9,3.76
1301.0,0.93,1.84,3.91
1313.0,0.92,1.76,4.22
1326.0,1.13,1.66,4.61
1339.0,1.45,1.6,4.76
1352.0,1.75,1.68,4.72
1365.0,1.76,1.69,4.76
1378.0,1.55,1.73,5.03
1390.0,1.12,1.55,5.69
1403.0,0.4,1.37,5.73
1416.0,0.0,0.86,6.26
1429.0,0.23,0.2,7.3
1442.0,0.7,-0.27,7.68
1455.0,1.47,-0.46,7.8
1468.0,2.18,-0.51,7.81
1480.0,2.74,-0.41,8.13
1493.0,2.54,-0.03,7.67
1506.0,2.02,0.05,7.35
1519.0,1.1,-0.59,8.05
1532.0,0.56,-1.66,9.68
1545.0,0.12,-2.74,11.82
1558.0,0.6,-2.87,12.71
1570.0,1.9,-2.36,12.29
1583.0,2.87,-1.37,10.94
1596.0,2.67,0.16,9.11
1609.0,1.08,1.3,7.63
1622.0,-0.53,1.39,8.37
1635.0,-1.61,0.2,11.03
1647.0,-0.94,-1.12,13.55
1660.0,0.43,-1.86,14.36
1673.0,1.8,-1.92,13.95
1686.0,2.18,-1.43,13.13
1699.0,1.03,-0.33,12.04
1712.0,-0.68,0.77,11.14
1725.0,-2.25,1.13,10.82
1738.0,-2.33,0.57,11.78
1750.0,-0.96,-0.39,13.22
1763.0,0.68,-1.25,14.06
1776.0,2.09,-1.61,14.3
1789.0,2.87,-1.44,13.98
1802.0,2.62,-0.79,13.41
1815.0,1.65,-0.02,12.99
1828.0,0.74,0.45,12.84
1840.0,-0.14,0.76,12.92
1853.0,-0.78,0.93,12.86
1866.0,-0.99,0.87,12.79
1879.0,-0.81,0.42,13.11
1892.0,-0.48,-0.27,13.84
1905.0,-0.15,-0.99,14.77
1918.0,0.03,-1.45,15.31
1930.0,0.03,-1.75,15.68
1943.0,-0.38,-1.71,15.58
1956.0,-0.69,-1.42,14.97
1969.0,-0.89,-1.08,14.25
1982.0,-0.95,-0.73,13.59
1995.0,-0.96,-0.48,13.07
2008.0,-0.78,-0.34,12.85
2021.0,-0.62,-0.41,12.75
2033.0,-0.39,-0.62,12.72
2046.0,0.05,-0.98,12.7
2059.0,0.43,-1.45,12.78
2072.0,0.61,-1.94,12.91
2085.0,0.55,-2.2,12.7
2098.0,0.35,-1.86,11.89
2111.0,-0.03,-1.1,10.38
2123.0,-0.44,-0.46,8.95
2136.0,-0.37,-0.62,8.55
2149.0,0.91,-2.07,9.71
2162.0,2.44,-3.64,10.95
2175.0,3.59,-4.35,10.99
2188.0,3.26,-5.11,11.32
2201.0,2.57,-5.2,11.86
2213.0,2.2,-4.67,11.25
2226.0,1.91,-3.81,9.82
2239.0,1.79,-2.79,8.29
2252.0,1.73,-2.01,6.9
2265.0,1.81,-1.33,6.58
2278.0,1.56,-1.41,6.85
2291.0,1.49,-2.02,8.09
2303.0,1.42,-2.57,9.11
2316.0,1.31,-2.6,8.87
2329.0,1.92,-2.11,7.86
2342.0,2.33,-1.77,6.57
2355.0,2.8,-1.35,6.37
2368.0,2.72,-1.09,6.4
2381.0,2.26,-0.71,6.44
2393.0,1.64,-0.28,6.43
2406.0,1.19,0.01,6.53
2419.0,1.18,0.22,6.42
2432.0,1.59,0.26,6.29
2445.0,1.68,0.26,5.91
2458.0,1.54,0.34,5.68
2471.0,1.19,0.48,5.73
2483.0,0.81,0.68,5.74
2496.0,0.63,0.82,5.84
2509.0,0.56,0.93,5.69
2522.0,0.73,0.97,5.67
2535.0,0.89,1.02,5.62
2548.0,1.12,1.01,5.57
2560.0,1.43,0.94,5.7
2573.0,1.61,0.81,5.93
2586.0,1.57,0.59,6.37
2599.0,1.22,0.43,6.53
2612.0,0.74,0.5,6.85
2625.0,-0.13,0.66,6.74
2638.0,-0.82,0.7,6.19
2650.0,-1.05,0.34,6.26
2663.0,-0.81,-0.35,7.03
2676.0,-0.14,-0.81,8.03
2689.0,0.62,-0.9,8.28
2702.0,1.32,-0.71,7.93
2715.0,1.72,-0.33,7.18
2728.0,1.18,-0.02,6.2
2740.0,0.47,-0.18,6.33
2753.0,0.2,-1.04,8.25
2766.0,0.71,-1.97,10.47
2779.0,1.84,-2.52,11.63
2792.0,2.77,-2.39,11.6
2805.0,2.94,-1.88,11.09
2818.0,2.47,-1.36,10.6
2830.0,1.5,-0.94,10.55
2843.0,0.62,-0.53,10.55
2856.0,0.36,-0.44,10.54
2869.0,0.85,-0.64,10.59
2882.0,1.63,-0.78,10.41
2895.0,2.28,-1.01,10.24
2908.0,1.92,-1.35,11.06
2920.0,1.11,-1.5,11.91
2933.0,0.87,-1.6,12.78
2946.0,1.47,-1.44,12.99
2959.0,2.21,-1.16,12.4
2972.0,2.66,-0.76,11.57
2985.0,2.76,-0.16,10.61
2998.0,2.31,-0.32,10.67
3010.0,2.46,-1.43,12.56
3023.0,2.41,-2.8,14.82
3036.0,2.44,-3.59,16.18
3049.0,2.65,-3.8,16.26
3062.0,2.51,-3.28,15.19
3075.0,1.7,-2.29,13.61
3088.0,0.51,-1.19,12.18
3100.0,-0.47,-0.44,11.37
3113.0,-0.84,-0.46,11.53
3126.0,-0.32,-1.33,12.5
3139.0,0.44,-2.32,13.56
3152.0,0.98,-2.83,13.9
3165.0,1.03,-2.8,13.62
3178.0,0.8,-2.62,13.21
3191.0,0.07,-2.36,13.03
3203.0,-0.7,-2.0,13.06
3216.0,-0.94,-1.77,13.05
3229.0,-0.52,-1.73,12.89
3242.0,0.11,-1.83,12.67
3255.0,0.63,-1.92,12.52
3268.0,0.51,-2.19,12.6
3281.0,-0.03,-2.67,13.62
3293.0,-0.41,-2.94,14.28
3306.0,-0.28,-3.08,14.21
3319.0,0.12,-3.16,13.93
3332.0,0.27,-3.1,13.47
3345.0,0.54,-2.98,12.95
3358.0,0.91,-3.16,12.63
3371.0,1.34,-3.34,12.78
3383.0,1.9,-3.38,12.53
3396.0,2.49,-3.17,11.7
3409.0,2.9,-2.82,10.79
3422.0,2.98,-2.54,10.1
3435.0,2.98,-2.56,9.79
3448.0,2.75,-2.81,10.41
3461.0,2.7,-3.05,10.66
3473.0,2.82,-2.8,9.93
3486.0,2.8,-2.12,8.74
3499.0,2.97,-1.25,7.38
3512.0,3.06,-0.47,6.15
3525.0,3.32,-0.18,5.83
3538.0,3.11,-0.83,7.11
3551.0,2.38,-1.37,8.4
3563.0,1.76,-1.41,8.53
3576.0,1.78,-1.04,7.85
3589.0,2.07,-0.45,6.4
3602.0,2.62,0.01,5.2
3615.0,3.06,-0.07,5.16
3628.0,2.93,-0.82,6.26
3641.0,2.65,-1.39,7.48
3653.0,2.61,-1.73,7.94
3666.0,3.03,-1.53,7.5
3679.0,3.25,-0.93,6.5
3692.0,3.18,-0.1,4.91
3705.0,2.96,0.49,3.87
3718.0,2.46,0.58,3.76
3731.0,2.02,0.05,4.75
3743.0,1.9,-0.71,6.04
3756.0,2.1,-1.37,7.35
3769.0,2.44,-1.54,8.02
3782.0,2.57,-0.95,7.1
3795.0,2.52,-0.13,5.68
3808.0,2.06,0.75,4.33
3821.0,1.55,1.27,3.56
3833.0,1.05,0.89,4.35
3846.0,1.13,-0.0,6.5
3859.0,1.35,-0.82,8.38
3872.0,1.52,-1.01,9.14
3885.0,1.49,-0.92,9.01
3898.0,1.88,-0.72,8.58
3911.0,2.17,-0.65,7.48
3923.0,2.35,-0.29,6.28
3936.0,2.5,-0.08,6.29
3949.0,2.62,-0.25,7.29
3962.0,2.59,-0.67,8.75
3975.0,2.32,-1.1,10.13
3988.0,2.01,-1.49,11.49
4001.0,1.63,-1.4,11.31
4013.0,0.77,-0.5,9.61
4026.0,-1.05,0.93,6.29
4039.0,-1.75,1.71,4.87
4052.0,-1.0,1.54,5.85
4065.0,-0.09,0.48,7.64
4078.0,0.76,-0.95,9.78
4091.0,1.42,-1.84,11.27
4103.0,1.43,-1.99,11.36
4116.0,1.19,-1.74,10.77
4129.0,1.16,-1.36,10.29
4142.0,1.58,-1.08,10.24
4155.0,1.84,-0.94,10.28
4168.0,1.55,-0.86,10.57
4181.0,1.28,-0.9,10.91
4193.0,1.37,-1.17,11.24
4206.0,1.74,-1.62,11.68
4219.0,2.25,-2.26,12.24
4232.0,2.8,-2.68,12.73
4245.0,3.42,-2.73,12.81
4258.0,3.66,-2.52,12.51
4271.0,3.33,-2.14,12.17
4283.0,2.47,-1.83,12.06
4296.0,1.81,-1.6,11.9
4309.0,1.3,-1.68,11.91
4322.0,0.94,-2.21,12.32
4335.0,1.23,-2.71,12.79
4348.0,1.75,-2.96,12.78
4361.0,2.19,-2.8,12.26
4373.0,2.02,-2.38,11.77
4386.0,1.25,-2.04,11.72
4399.0,0.62,-1.97,12.14
4412.0,0.33,-2.07,12.5
4425.0,0.32,-2.16,12.61
4438.0,0.25,-2.17,12.53
4451.0,0.08,-1.92,12.14
4463.0,-0.07,-1.58,11.8
4476.0,-0.0,-1.44,11.83
4489.0,0.02,-1.6,12.34
4502.0,0.21,-2.04,13.15
4515.0,0.42,-2.53,13.74
4528.0,0.83,-3.03,14.39
4541.0,1.16,-3.28,14.93
4554.0,1.07,-3.18,14.91
4566.0,1.03,-3.1,15.03
4579.0,1.16,-3.11,15.0
4592.0,1.45,-3.09,14.46
4605.0,1.9,-3.17,14.01
4618.0,2.21,-3.22,13.57
4631.0,1.97,-3.16,13.11
4644.0,1.3,-2.92,12.77
4656.0,0.64,-2.38,11.95
4669.0,0.26,-2.05,11.03
4682.0,1.04,-2.33,10.93
4695.0,2.07,-2.69,10.76
4708.0,2.85,-2.71,10.13
4721.0,3.21,-2.21,8.97
4734.0,3.08,-1.55,7.66
4746.0,2.4,-0.95,6.85
4759.0,1.34,-0.58,6.73
4772.0,0.65,-0.68,7.34
4785.0,0.55,-0.99,7.77
4798.0,0.82,-1.18,7.9
4811.0,1.21,-0.96,7.29
4824.0,1.51,-0.56,6.23
4836.0,1.46,-0.23,5.4
4849.0,1.27,-0.15,5.11
4862.0,1.18,-0.32,5.57
4875.0,1.1,-0.74,6.43
4888.0,1.43,-1.12,7.17
4901.0,1.79,-1.1,7.16
4914.0,1.86,-0.64,6.32
4926.0,1.75,0.09,5.23
4939.0,1.29,0.68,3.98
4952.0,1.02,1.0,3.4
4965.0,0.82,0.93,3.58
4978.0,0.75,0.47,4.48
4991.0,0.59,-0.34,5.78
5003.0,0.91,-1.1,7.2
5016.0,1.62,-1.39,7.69
5029.0,2.34,-1.21,7.46
5042.0,2.49,-0.77,7.0
5055.0,2.12,-0.32,6.37
5068.0,1.27,-0.16,6.28
5081.0,0.68,-0.38,6.91
5093.0,0.37,-0.79,7.8
5106.0,0.37,-1.13,8.55
5119.0,0.8,-1.14,8.78
5132.0,1.36,-0.79,8.49
5145.0,1.59,-0.35,7.86
5158.0,1.31,0.17,7.13
5171.0,0.0,0.42,6.95
5183.0,-1.49,0.33,7.65
5196.0,-2.09,-0.28,9.08
5209.0,-1.19,-1.04,10.28
5222.0,0.93,-1.44,10.56
5235.0,3.03,-1.54,10.24
5248.0,4.11,-1.36,9.79
5261.0,3.05,-0.91,9.09
5273.0,0.65,-0.46,8.98
5286.0,-1.26,-0.49,10.25
5299.0,-1.07,-1.0,11.17
5312.0,0.36,-1.47,11.43
5325.0,1.9,-1.67,11.08
5338.0,2.66,-1.91,11.23
5351.0,2.41,-2.29,12.23
5364.0,1.44,-2.63,13.43
5376.0,0.42,-2.62,13.91
5389.0,-0.1,-2.39,13.78
5402.0,0.12,-2.36,13.52
5415.0,0.78,-2.49,13.35
5428.0,1.29,-2.81,13.4
5441.0,1.41,-3.11,13.79
5454.0,0.87,-3.4,14.57
5466.0,0.29,-3.32,14.67
5479.0,0.05,-2.73,13.91
5492.0,0.08,-2.2,13.02
5505.0,0.14,-1.92,12.43
5518.0,0.06,-1.91,12.17
5531.0,-0.16,-2.06,12.31
5544.0,-0.32,-2.12,12.29
5556.0,-0.5,-1.85,11.89
5569.0,-0.62,-1.59,11.53
5582.0,-0.72,-1.52,11.56
5595.0,-0.61,-1.75,12.06
5608.0,-0.22,-2.22,12.76
5621.0,0.46,-2.87,13.56
5634.0,0.83,-3.28,14.06
5647.0,0.89,-3.26,13.95
5659.0,1.08,-2.98,13.48
5672.0,1.3,-2.57,12.66
5685.0,1.38,-2.2,11.68
5698.0,1.28,-2.3,11.62
5711.0,1.32,-2.87,12.17
5724.0,1.29,-3.71,12.88
5737.0,1.18,-4.29,13.49
5749.0,0.91,-4.44,13.44
5762.0,0.86,-4.04,12.49
5775.0,1.03,-3.23,10.96
5788.0,1.23,-2.32,9.44
5801.0,1.11,-1.3,7.89
5814.0,0.52,-0.66,6.69
5827.0,-0.17,-0.8,7.09
5839.0,-0.76,-1.77,8.66
5852.0,-0.46,-2.74,10.02
5865.0,0.26,-3.2,10.08
5878.0,1.08,-3.1,9.4
5891.0,1.64,-2.62,8.29
5904.0,1.78,-2.04,7.21
5917.0,1.53,-1.58,6.49
5929.0,1.1,-1.38,6.4
5942.0,0.58,-1.4,6.55
5955.0,0.51,-1.45,6.84
5968.0,0.74,-1.38,6.91
5981.0,1.05,-1.1,6.68
5994.0,1.22,-0.7,6.14
6007.0,1.33,-0.23,5.57
6019.0,1.22,0.18,4.92
6032.0,1.01,0.5,4.31
6045.0,0.8,0.61,4.18
6058.0,0.72,0.47,4.35
6071.0,1.0,0.14,4.91
6084.0,1.49,-0.21,5.61
6097.0,2.08,-0.39,6.0
6109.0,2.51,-0.33,5.96
6122.0,2.4,-0.13,5.57
6135.0,1.82,-0.12,5.73
6148.0,1.27,-0.35,6.12
6161.0,0.9,-0.72,6.71
6174.0,0.88,-1.14,7.53
6187.0,1.05,-1.38,8.25
6199.0,1.3,-1.5,8.66
6212.0,1.45,-1.32,8.31
6225.0,0.97,-0.91,7.55
6238.0,0.2,-0.77,7.26
6251.0,-0.35,-1.05,7.81
6264.0,0.07,-1.77,9.01
6277.0,1.24,-2.76,10.54
6289.0,2.36,-3.34,11.6
6302.0,2.69,-3.12,11.4
6315.0,1.92,-2.38,10.3
6328.0,1.0,-1.92,9.87
6341.0,0.0,-2.07,10.4
6354.0,-0.03,-2.66,11.71
6367.0,0.78,-3.18,12.77
6379.0,1.53,-3.21,12.72
6392.0,1.88,-2.66,11.86
6405.0,1.48,-2.17,11.13
6418.0,0.82,-2.05,11.22
6431.0,0.04,-2.54,12.34
6444.0,0.07,-3.13,13.63
6457.0,0.73,-3.48,14.11
6469.0,1.54,-3.39,13.95
6482.0,1.98,-3.1,13.43
6495.0,1.65,-2.72,12.84
6508.0,1.05,-2.43,12.62
6521.0,0.57,-2.37,12.72
6534.0,0.33,-2.51,12.99
6547.0,0.35,-2.74,13.35
6559.0,0.44,-3.05,13.7
6572.0,0.62,-3.32,13.99
6585.0,0.74,-3.43,14.02
6598.0,0.76,-3.45,13.97
6611.0,0.7,-3.39,13.78
6624.0,0.52,-3.13,13.36
6637.0,0.44,-2.98,13.04
6649.0,0.46,-3.05,13.16
6662.0,0.69,-3.24,13.28
6675.0,0.86,-3.18,12.93
6688.0,0.86,-3.08,12.5
6701.0,0.78,-2.99,12.08
6714.0,0.93,-2.77,11.52
6727.0,1.06,-2.28,10.56
6739.0,0.69,-1.83,9.66
6752.0,0.07,-1.59,9.41
6765.0,-0.14,-1.59,9.26
6778.0,0.16,-1.83,9.36
6791.0,0.78,-2.16,9.73
6804.0,1.33,-2.28,9.71
6817.0,1.61,-2.09,9.23
6830.0,0.97,-1.73,8.54
6842.0,0.12,-1.32,8.03
6855.0,-0.54,-0.93,7.3
6868.0,-0.87,-0.97,6.83
6881.0,-0.67,-1.75,7.83
6894.0,0.18,-2.8,9.39
6907.0,1.14,-3.54,10.36
6920.0,1.92,-3.69,10.28
6932.0,2.33,-3.2,9.35
6945.0,2.19,-2.29,7.73
6958.0,1.75,-1.33,5.99
6971.0,1.25,-0.76,5.06
6984.0,0.97,-0.48,5.01
6997.0,1.11,-0.55,5.36
7010.0,1.43,-0.77,5.83
7022.0,1.8,-0.9,6.15
7035.0,2.18,-0.8,5.98
7048.0,2.34,-0.54,5.53
7061.0,2.27,-0.3,5.19
7074.0,2.1,-0.09,4.9
7087.0,1.76,-0.07,4.85
7100.0,1.34,-0.24,5.25
7112.0,0.91,-0.62,6.11
7125.0,0.91,-1.01,6.85
7138.0,1.29,-1.27,7.53
7151.0,1.63,-1.46,8.05
7164.0,1.96,-1.56,8.47
7177.0,1.99,-1.51,8.52
7190.0,1.66,-1.2,7.99
7202.0,0.73,-0.68,7.03
7215.0,-0.02,-0.22,6.66
7228.0,-0.36,-0.31,7.01
7241.0,0.01,-0.72,8.04
7254.0,0.58,-1.33,9.24
7267.0,0.81,-1.85,10.27
7280.0,0.48,-1.74,10.48
7292.0,-0.09,-1.1,9.59
7305.0,-0.85,-0.6,8.73
7318.0,-0.85,-0.96,9.32
7331.0,-0.14,-2.2,11.28
7344.0,1.23,-3.63,13.37
7357.0,2.23,-4.36,14.51
7370.0,2.17,-4.14,14.17
7383.0,1.43,-3.33,12.96
7395.0,0.59,-2.6,12.13
7408.0,0.59,-2.46,12.1
7421.0,0.93,-2.79,12.73
7434.0,1.09,-3.23,13.63
7447.0,1.34,-3.66,14.34
7460.0,1.51,-3.7,14.51
7473.0,1.55,-3.49,14.23
7485.0,1.26,-3.3,14.06
7498.0,0.98,-3.09,13.97
7511.0,0.66,-2.82,13.58
7524.0,0.27,-2.6,13.3
7537.0,0.12,-2.57,13.22
7550.0,0.24,-2.68,13.38
7563.0,0.41,-2.78,13.32
7575.0,0.26,-2.73,13.17
7588.0,0.31,-2.77,13.13
7601.0,0.26,-2.84,13.05
7614.0,0.19,-2.94,13.17
7627.0,0.36,-3.0,12.98
7640.0,0.42,-2.75,12.24
7653.0,0.53,-2.33,11.46
7665.0,0.73,-2.14,10.91
7678.0,0.86,-2.06,10.63
7691.0,1.01,-2.2,10.7
7704.0,1.19,-2.56,11.19
7717.0,1.39,-2.78,11.52
7730.0,1.39,-2.79,11.3
7743.0,1.27,-2.37,10.69
7755.0,0.99,-1.81,9.8
7768.0,0.73,-1.28,9.11
7781.0,0.28,-0.91,8.46
7794.0,-0.32,-0.76,8.15
7807.0,-0.22,-0.73,8.16
7820.0,0.5,-0.7,7.77
7833.0,1.23,-0.62,7.18
7845.0,1.79,-0.43,6.62
7858.0,1.76,-0.47,6.54
7871.0,1.31,-0.59,7.12
7884.0,0.78,-0.64,7.24
7897.0,0.48,-0.75,7.37
7910.0,0.54,-0.67,7.34
7923.0,0.84,-0.51,6.87
7935.0,1.31,-0.23,6.28
7948.0,1.65,0.06,5.64
7961.0,1.86,0.24,5.39
7974.0,1.72,0.29,5.52
7987.0,1.5,0.32,5.53
8000.0,1.34,0.43,5.49
8013.0,1.34,0.51,5.37
8025.0,1.42,0.55,5.21
8038.0,1.81,0.3,5.12
8051.0,1.56,0.23,5.46
8064.0,0.93,0.09,6.14
8077.0,0.99,-0.29,6.63
8090.0,1.08,-0.75,7.25
8102.0,1.51,-1.09,7.87
8115.0,1.82,-1.16,7.98
8128.0,1.73,-0.71,7.58
8141.0,1.13,-0.13,6.76
8154.0,-0.25,0.09,6.6
8167.0,-1.07,-0.59,8.42
8180.0,-0.61,-1.74,10.16
8193.0,0.71,-2.61,11.38
8205.0,2.16,-2.79,11.64
8218.0,2.95,-2.5,11.4
8231.0,2.42,-1.84,10.84
8244.0,0.73,-1.06,10.22
8257.0,-0.85,-0.6,9.99
8270.0,-1.0,-0.86,10.64
8283.0,0.05,-1.82,11.83
8295.0,1.13,-2.75,12.95
8308.0,1.6,-3.25,13.57
8321.0,1.53,-3.16,13.69
8334.0,1.01,-2.57,12.87
8347.0,0.21,-1.65,11.47
8360.0,-0.23,-1.3,10.93
8373.0,0.09,-1.68,11.45
8385.0,0.7,-2.57,12.54
8398.0,1.29,-3.47,13.8
8411.0,1.4,-4.03,14.65
8424.0,1.2,-4.11,14.69
8437.0,0.91,-3.63,14.06
8450.0,0.66,-3.25,13.49
8463.0,0.76,-3.06,13.32
8475.0,1.01,-3.07,13.28
8488.0,1.23,-3.17,13.33
8501.0,1.5,-3.2,13.39
8514.0,1.38,-3.18,13.27
8527.0,1.04,-3.06,13.13
8540.0,0.74,-2.97,13.02
8553.0,0.69,-3.02,12.96
8565.0,1.35,-3.22,13.21
8578.0,2.13,-3.09,13.02
8591.0,2.43,-2.63,12.26
8604.0,1.95,-2.13,11.24
8617.0,0.93,-1.99,11.05
8630.0,-0.14,-2.54,11.89
8643.0,-0.74,-3.2,12.84
8656.0,-0.34,-3.57,12.73
8668.0,0.8,-3.61,11.85
8681.0,1.92,-3.25,10.44
8694.0,1.85,-2.81,9.16
8707.0,1.34,-2.28,8.52
8720.0,0.73,-1.82,7.76
8733.0,0.52,-1.48,7.21
8746.0,0.72,-1.3,6.95
8758.0,1.05,-1.3,6.87
8771.0,1.41,-1.27,6.67
8784.0,1.79,-1.21,6.36
8797.0,2.11,-1.13,6.08
8810.0,2.12,-1.07,5.85
8823.0,1.99,-1.0,5.75
8836.0,1.88,-0.93,5.78
8848.0,1.85,-0.75,5.63
8861.0,1.8,-0.5,5.28
8874.0,1.68,-0.22,4.99
8887.0,1.55,0.09,4.67
8900.0,1.41,0.32,4.4
8913.0,1.36,0.42,4.31
8925.0,1.49,0.45,4.14
8938.0,1.62,0.48,3.91
8951.0,1.61,0.5,3.87
8964.0,1.49,0.38,4.22
8977.0,1.53,0.0,4.91
8990.0,1.48,-0.79,6.09
9003.0,1.69,-1.82,8.14
9015.0,2.25,-2.24,9.43
9028.0,2.57,-1.72,8.55
9041.0,1.87,-0.21,6.31
9054.0,-0.66,0.78,4.19
9067.0,-2.05,0.77,5.25
9080.0,-1.19,-0.2,7.76
9093.0,0.95,-1.7,9.74
9105.0,2.59,-3.02,11.84
9118.0,3.0,-3.67,13.75
9131.0,2.19,-3.58,14.13
9144.0,0.5,-2.38,12.99
9157.0,-1.05,-0.91,11.48
9170.0,-1.87,-0.08,10.58
9183.0,-1.88,-0.4,11.0
9195.0,-1.41,-1.53,12.61
9208.0,-0.67,-2.82,14.33
9221.0,0.39,-3.87,15.75
9234.0,1.13,-4.34,16.35
9247.0,1.35,-4.31,16.38
9260.0,0.98,-3.94,15.96
9273.0,0.43,-3.42,15.27
9286.0,-0.07,-2.95,14.65
9298.0,-0.17,-2.57,13.98
9311.0,0.15,-2.3,13.3
9324.0,0.62,-2.2,12.87
9337.0,0.85,-2.34,12.88
9350.0,1.0,-2.46,13.04
9363.0,1.03,-2.53,13.14
9376.0,0.87,-2.49,13.02
9388.0,0.55,-2.5,12.8
9401.0,0.31,-2.6,12.9
9414.0,0.2,-2.67,12.95
9427.0,0.31,-2.68,12.76
9440.0,0.72,-2.67,12.59
9453.0,1.0,-2.59,12.13
9466.0,1.2,-2.48,11.78
9478.0,1.56,-2.32,11.44
9491.0,1.39,-2.32,10.97
9504.0,0.59,-2.33,10.99
9517.0,-0.09,-2.08,10.66
9530.0,0.0,-1.84,9.99
9543.0,0.57,-1.69,9.44
9556.0,1.15,-1.67,8.91
9568.0,0.99,-1.83,8.93
9581.0,0.93,-2.01,9.4
9594.0,1.03,-1.98,9.35
9607.0,1.19,-1.57,8.5
9620.0,1.06,-0.92,7.39
9633.0,0.62,-0.45,6.38
9646.0,0.15,-0.34,6.25
9658.0,0.34,-0.61,6.8
9671.0,0.91,-0.98,7.14
9684.0,1.61,-1.22,7.4
9697.0,2.15,-1.22,7.33
9710.0,2.32,-0.92,6.87
9723.0,2.06,-0.42,6.13
9736.0,1.55,0.11,5.37
9748.0,0.98,0.45,4.85
9761.0,0.78,0.55,4.87
9774.0,0.83,0.55,4.98
9787.0,1.08,0.41,5.07
9800.0,1.35,0.18,5.35
9813.0,1.62,-0.22,5.85
9825.0,2.01,-0.68,6.6
9838.0,2.02,-1.07,7.38
9851.0,1.8,-1.08,7.69
9864.0,1.65,-0.91,7.62
9877.0,1.51,-0.61,7.26
9890.0,1.47,-0.54,7.3
9903.0,1.36,-0.75,7.85
9916.0,1.2,-1.01,8.71
9928.0,0.84,-0.91,8.98
9941.0,0.61,-0.59,8.77
9954.0,0.08,-0.26,8.4
9967.0,-0.5,-0.41,8.79
9980.0,-0.88,-1.45,10.65
9993.0,-0.2,-2.85,13.13
10006.0,1.2,-3.63,14.43
10018.0,2.38,-3.63,14.26
10031.0,2.69,-2.99,13.34
10044.0,2.05,-2.04,11.95
10057.0,0.84,-0.87,10.25
10070.0,-0.71,-0.06,9.32
10083.0,-1.62,0.09,9.74
10096.0,-1.51,-0.66,10.94
10108.0,-0.58,-1.67,12.25
10121.0,0.31,-2.65,13.48
10134.0,0.88,-3.25,14.43
10147.0,1.01,-3.44,14.79
10160.0,0.89,-3.21,14.67
10173.0,0.62,-2.66,14.01
10186.0,0.33,-2.04,13.43
10198.0,0.01,-1.6,12.97
10211.0,-0.35,-1.33,12.84
10224.0,-0.51,-1.26,12.94
10237.0,-0.48,-1.32,13.18
10250.0,-0.06,-1.52,13.44
10263.0,0.34,-1.71,13.55
10276.0,0.32,-1.81,13.56
10289.0,0.18,-1.89,13.59
10301.0,0.01,-1.94,13.56
10314.0,-0.14,-1.98,13.46
10327.0,-0.36,-1.69,12.91
10340.0,-0.07,-1.38,12.19
10353.0,0.52,-1.25,11.54
10366.0,0.84,-1.15,10.9
10379.0,0.87,-1.15,10.63
10391.0,0.77,-1.06,10.34
10404.0,0.62,-0.82,9.82
10417.0,0.39,-0.52,9.21
10430.0,0.37,-0.54,8.93
10443.0,0.47,-0.68,8.95
10456.0,0.65,-0.92,8.94
10469.0,0.76,-1.08,9.04
10481.0,1.01,-0.99,8.74
10494.0,1.22,-0.64,8.01
10507.0,1.32,-0.36,7.44
10520.0,1.17,-0.31,7.27
10533.0,0.81,-0.28,7.42
10546.0,0.32,-0.09,7.23
10559.0,0.09,0.22,6.8
10571.0,0.23,0.42,6.17
10584.0,0.48,0.29,5.98
10597.0,0.64,0.07,6.32
10610.0,0.93,-0.24,6.78
10623.0,1.28,-0.4,6.93
10636.0,1.51,-0.39,6.99
10649.0,1.59,-0.1,6.51
10661.0,1.47,0.26,5.8
10674.0,1.28,0.6,5.2
10687.0,1.14,0.79,4.86
10700.0,1.0,0.89,4.63
10713.0,0.89,0.73,4.85
10726.0,0.99,0.04,5.84
10738.0,1.39,-0.87,7.39
10751.0,1.97,-1.57,8.4
10764.0,2.43,-1.71,8.5
10777.0,2.48,-0.81,8.09
10790.0,0.96,0.19,5.65
10803.0,-0.75,0.92,3.85
10816.0,-1.63,1.03,5.3
10828.0,-1.53,0.24,7.56
10841.0,-0.27,-0.96,9.78
10854.0,0.95,-1.53,10.82
10867.0,1.82,-1.26,10.38
10880.0,1.7,-0.63,9.71
10893.0,0.84,-0.22,9.77
10906.0,-0.45,-0.37,11.04
10919.0,-0.71,-0.95,12.66
10931.0,0.15,-1.72,13.86
10944.0,1.28,-2.21,14.29
10957.0,1.88,-2.46,14.46
10970.0,1.89,-2.44,14.57
10983.0,1.6,-2.1,14.3
10996.0,1.3,-1.73,13.97
11009.0,1.32,-1.64,13.89
11021.0,1.55,-1.87,14.09
11034.0,1.47,-2.15,14.53
11047.0,1.24,-2.19,14.69
11060.0,0.95,-2.05,14.58
11073.0,0.71,-1.76,14.16
11086.0,0.61,-1.6,13.87
11099.0,0.72,-1.72,14.13
11111.0,0.93,-2.12,14.58
11124.0,1.12,-2.36,14.86
11137.0,1.07,-2.23,14.49
11150.0,0.87,-1.81,13.76
11163.0,0.67,-1.24,12.8
11176.0,0.22,-0.92,12.29
11189.0,-0.14,-1.07,12.49
11201.0,0.04,-1.59,12.96
11214.0,0.62,-1.98,13.06
11227.0,1.33,-2.06,12.51
11240.0,1.8,-1.84,11.74
11253.0,1.85,-1.55,11.05
11266.0,1.22,-1.26,10.56
11279.0,0.21,-1.32,10.8
11291.0,-0.32,-1.33,11.05
11304.0,-0.53,-1.27,10.59
11317.0,-0.03,-1.18,10.06
11330.0,0.89,-1.06,9.43
11343.0,1.8,-0.7,8.51
11356.0,2.11,-0.11,7.35
11369.0,1.54,0.05,6.85
11381.0,0.54,-0.09,7.48
11394.0,-0.37,-0.26,8.2
11407.0,-0.61,-0.32,8.38
11420.0,-0.04,-0.22,7.93
11433.0,0.89,-0.08,7.24
11446.0,1.69,0.11,6.67
11459.0,1.99,0.47,5.96
11471.0,1.96,0.89,5.21
11484.0,1.38,0.97,4.93
11497.0,0.56,0.63,5.82
11510.0,0.3,0.13,7.11
11523.0,0.53,-0.08,7.65
11536.0,0.99,0.15,7.08
11549.0,1.37,0.66,6.1
11561.0,1.49,1.07,5.33
11574.0,1.38,1.19,5.06
11587.0,1.26,1.09,5.42
11600.0,1.19,0.75,6.09
11613.0,1.0,0.5,6.6
11626.0,0.72,0.31,7.04
11638.0,0.66,0.01,7.79
11651.0,0.86,-0.4,8.51
11664.0,1.48,-0.74,9.19
11677.0,2.07,-0.91,9.43
11690.0,2.4,-0.68,9.2
11703.0,1.66,-0.02,8.02
11716.0,0.19,0.74,7.02
11728.0,-1.11,0.93,6.78
11741.0,-1.63,0.54,7.74
11754.0,-0.94,-0.48,9.22
11767.0,0.43,-1.63,10.49
11780.0,1.83,-2.36,11.24
11793.0,2.73,-2.49,11.45
11806.0,2.91,-2.07,10.93
11818.0,2.32,-1.28,9.75
11831.0,1.29,-0.49,8.69
11844.0,0.13,-0.05,8.58
11857.0,-0.38,-0.27,9.21
11870.0,0.15,-0.99,10.22
11883.0,0.94,-1.61,10.91
11896.0,1.57,-1.88,11.0
11908.0,1.8,-2.02,11.0
11921.0,1.74,-2.02,10.85
11934.0,1.38,-2.06,10.96
11947.0,1.16,-2.29,11.59
11960.0,1.27,-2.63,12.39
11973.0,1.28,-2.88,12.8
11986.0,1.33,-3.12,13.17
11998.0,1.27,-3.18,13.39
12011.0,1.09,-2.96,13.08
12024.0,0.98,-2.68,12.66
12037.0,1.2,-2.61,12.61
12050.0,1.38,-2.63,12.81
12063.0,1.51,-2.54,12.84
12076.0,1.42,-2.47,12.75
12088.0,1.12,-2.48,12.8
12101.0,1.02,-2.45,12.71
12114.0,0.83,-2.23,12.28
12127.0,0.67,-2.03,11.95
12140.0,0.47,-1.84,11.71
12153.0,0.27,-1.62,11.53
12166.0,0.32,-1.52,11.47
12178.0,0.78,-1.65,11.77
12191.0,1.16,-1.94,12.03
12204.0,1.36,-2.05,12.23
12217.0,1.4,-2.04,12.2
12230.0,1.24,-1.97,12.1
12243.0,1.03,-1.76,11.85
12256.0,0.8,-1.4,11.18
12268.0,0.66,-0.95,10.36
12281.0,0.59,-0.81,9.88
12294.0,0.58,-1.37,10.5
12307.0,0.95,-2.27,11.71
12320.0,1.36,-3.01,12.64
12333.0,1.67,-3.26,12.98
12346.0,1.78,-2.96,12.22
12359.0,1.43,-2.24,10.8
12371.0,0.97,-1.5,9.59
12384.0,0.17,-1.28,9.18
12397.0,-0.2,-1.37,9.8
12410.0,0.02,-1.54,10.02
12423.0,0.39,-1.42,9.51
12436.0,0.79,-1.23,8.84
12449.0,1.17,-1.08,8.42
12461.0,1.3,-0.87,8.04
12474.0,0.95,-0.8,7.86
12487.0,0.14,-0.9,8.21
12500.0,-0.25,-1.06,8.9
12513.0,-0.0,-1.06,8.83
12526.0,0.65,-0.91,8.16
12539.0,1.28,-0.74,7.8
12551.0,1.49,-0.54,7.43
12564.0,1.27,-0.27,7.08
12577.0,0.98,-0.11,6.91
12590.0,0.77,0.05,6.79
12603.0,0.5,0.19,6.62
12616.0,0.34,0.37,6.6
12629.0,0.4,0.52,6.38
12641.0,0.58,0.66,6.14
12654.0,0.81,0.84,5.72
12667.0,1.0,1.0,5.25
12680.0,1.03,1.05,5.04
12693.0,1.01,0.74,5.59
12706.0,1.16,0.1,6.72
12718.0,1.29,-0.59,7.82
12731.0,1.27,-1.09,8.9
12744.0,1.26,-1.15,9.29
12757.0,1.48,-0.63,8.52
12770.0,1.36,0.39,6.79
12783.0,0.4,1.15,5.46
12796.0,-0.32,0.93,5.91
12808.0,-0.19,-0.14,7.78
12821.0,0.5,-1.34,9.57
12834.0,1.48,-2.23,10.84
12847.0,1.98,-2.53,11.4
