timestamp,accX,accY,accZ
2.0,-0.11,-1.34,9.84
15.0,-0.1,-1.08,7.89
28.0,-0.25,-1.35,9.57
41.0,-0.23,-1.46,9.97
54.0,-0.16,-1.63,10.41
67.0,-0.04,-1.61,10.4
79.0,-0.06,-1.55,10.25
92.0,-0.15,-1.42,10.02
105.0,-0.12,-1.28,9.78
118.0,0.0,-1.16,9.64
131.0,0.04,-1.06,9.44
144.0,-0.15,-1.01,9.23
157.0,-0.4,-1.08,9.29
170.0,-0.32,-1.27,9.68
182.0,-0.06,-1.41,10.08
195.0,0.02,-1.55,10.32
208.0,-0.07,-1.57,10.29
221.0,-0.14,-1.53,10.19
234.0,-0.19,-1.45,10.01
247.0,-0.27,-1.47,10.0
260.0,-0.4,-1.54,10.01
273.0,-0.48,-1.52,9.92
285.0,-0.41,-1.47,9.8
298.0,-0.41,-1.44,9.76
311.0,-0.38,-1.4,9.77
324.0,-0.27,-1.43,9.89
337.0,-0.29,-1.46,9.93
350.0,-0.34,-1.48,9.99
363.0,-0.35,-1.47,10.05
376.0,-0.22,-1.43,10.05
388.0,-0.11,-1.44,10.1
401.0,-0.09,-1.42,10.1
414.0,-0.08,-1.4,10.06
427.0,-0.1,-1.33,9.95
440.0,-0.16,-1.29,9.87
453.0,-0.2,-1.23,9.72
466.0,-0.25,-1.24,9.73
479.0,-0.25,-1.24,9.76
491.0,-0.16,-1.22,9.79
504.0,-0.12,-1.25,9.92
517.0,-0.11,-1.31,9.97
530.0,-0.15,-1.33,10.01
543.0,-0.28,-1.43,10.11
556.0,-0.28,-1.5,10.24
569.0,-0.16,-1.5,10.25
582.0,-0.23,-1.47,10.15
594.0,-0.36,-1.42,10.01
607.0,-0.34,-1.34,9.88
620.0,-0.39,-1.3,9.77
633.0,-0.32,-1.24,9.68
646.0,-0.28,-1.27,9.79
659.0,-0.28,-1.28,9.8
672.0,-0.29,-1.28,9.86
685.0,-0.19,-1.28,9.9
697.0,-0.24,-1.31,9.99
710.0,-0.22,-1.39,10.13
723.0,-0.12,-1.4,10.22
736.0,-0.11,-1.37,10.12
749.0,-0.17,-1.35,10.0
762.0,-0.28,-1.3,9.84
775.0,-0.28,-1.27,9.74
788.0,-0.29,-1.24,9.71
800.0,-0.24,-1.29,9.76
813.0,-0.23,-1.39,9.98
826.0,-0.18,-1.43,10.18
839.0,-0.16,-1.44,10.18
852.0,-0.23,-1.41,10.13
865.0,-0.24,-1.35,10.0
878.0,-0.22,-1.32,9.94
891.0,-0.31,-1.31,9.91
903.0,-0.32,-1.33,9.91
916.0,-0.3,-1.33,9.92
929.0,-0.26,-1.32,9.91
942.0,-0.28,-1.34,9.92
955.0,-0.36,-1.35,9.91
968.0,-0.32,-1.39,10.05
981.0,-0.19,-1.35,10.0
994.0,-0.2,-1.33,9.95
1006.0,-0.23,-1.38,10.04
1019.0,-0.26,-1.26,9.91
1032.0,-0.31,-1.23,9.85
1045.0,-0.29,-1.2,9.77
1058.0,-0.32,-1.21,9.78
1071.0,-0.28,-1.22,9.83
1084.0,-0.25,-1.28,9.97
1097.0,-0.25,-1.28,10.04
1109.0,-0.22,-1.28,10.03
1122.0,-0.2,-1.25,9.96
1135.0,-0.26,-1.23,9.86
1148.0,-0.25,-1.24,9.78
1161.0,-0.25,-1.22,9.76
1174.0,-0.31,-1.32,9.89
1187.0,-0.28,-1.4,10.08
1200.0,-0.15,-1.43,10.18
1212.0,-0.09,-1.43,10.19
1225.0,-0.15,-1.39,10.09
1238.0,-0.2,-1.26,9.88
1251.0,-0.29,-1.21,9.75
1264.0,-0.36,-1.2,9.7
1277.0,-0.4,-1.22,9.69
1290.0,-0.4,-1.23,9.76
1303.0,-0.41,-1.29,9.89
1315.0,-0.33,-1.38,10.09
1328.0,-0.17,-1.38,10.13
1341.0,-0.11,-1.34,10.08
1354.0,-0.16,-1.3,9.98
1367.0,-0.24,-1.25,9.81
1380.0,-0.28,-1.28,9.82
1393.0,-0.29,-1.32,9.8
1406.0,-0.34,-1.39,9.87
1418.0,-0.39,-1.42,9.84
1431.0,-0.33,-1.49,9.99
1444.0,-0.27,-1.53,10.08
1457.0,-0.18,-1.53,10.17
1470.0,-0.11,-1.52,10.19
1483.0,-0.12,-1.52,10.17
1496.0,-0.22,-1.48,10.07
1509.0,-0.34,-1.44,10.0
1521.0,-0.4,-1.44,9.95
1534.0,-0.45,-1.43,9.94
1547.0,-0.4,-1.42,9.9
1560.0,-0.33,-1.39,9.88
1573.0,-0.25,-1.33,9.79
1586.0,-0.23,-1.26,9.73
1599.0,-0.25,-1.26,9.72
1612.0,-0.27,-1.31,9.8
1624.0,-0.27,-1.44,10.05
1637.0,-0.22,-1.5,10.2
1650.0,-0.17,-1.49,10.2
1663.0,-0.2,-1.46,10.11
1676.0,-0.27,-1.43,9.97
1689.0,-0.22,-1.41,9.92
1702.0,-0.22,-1.39,9.85
1715.0,-0.29,-1.37,9.78
1727.0,-0.36,-1.4,9.8
1740.0,-0.35,-1.39,9.84
1753.0,-0.33,-1.4,9.91
1766.0,-0.31,-1.4,9.92
1779.0,-0.35,-1.43,9.96
1792.0,-0.25,-1.53,10.17
1805.0,-0.19,-1.52,10.22
1818.0,-0.17,-1.49,10.17
1830.0,-0.28,-1.43,10.03
1843.0,-0.32,-1.39,9.85
1856.0,-0.32,-1.38,9.83
1869.0,-0.25,-1.37,9.8
1882.0,-0.26,-1.38,9.82
1895.0,-0.28,-1.39,9.87
1908.0,-0.29,-1.41,9.96
1921.0,-0.27,-1.44,9.98
1933.0,-0.24,-1.44,9.96
1946.0,-0.2,-1.44,9.93
1959.0,-0.25,-1.42,9.9
1972.0,-0.3,-1.46,9.99
1985.0,-0.32,-1.47,10.09
1998.0,-0.36,-1.43,10.07
2011.0,-0.36,-1.4,9.95
2024.0,-0.37,-1.32,9.81
2036.0,-0.38,-1.25,9.7
2049.0,-0.34,-1.27,9.77
2062.0,-0.25,-1.29,9.84
2075.0,-0.23,-1.33,9.97
2088.0,-0.24,-1.39,10.08
2101.0,-0.21,-1.4,10.11
2114.0,-0.18,-1.37,10.02
2127.0,-0.23,-1.37,9.94
2139.0,-0.23,-1.35,9.89
2152.0,-0.25,-1.36,9.87
2165.0,-0.33,-1.38,9.85
2178.0,-0.35,-1.39,9.88
2191.0,-0.32,-1.41,9.97
2204.0,-0.33,-1.41,9.98
2217.0,-0.26,-1.41,9.97
2230.0,-0.23,-1.38,9.95
2242.0,-0.25,-1.39,9.97
2255.0,-0.28,-1.4,9.95
2268.0,-0.33,-1.38,9.99
2281.0,-0.33,-1.42,9.97
2294.0,-0.32,-1.4,9.96
2307.0,-0.27,-1.38,9.95
2320.0,-0.23,-1.37,9.93
2333.0,-0.27,-1.35,9.89
2345.0,-0.33,-1.36,9.87
2358.0,-0.34,-1.37,9.89
2371.0,-0.29,-1.38,9.91
2384.0,-0.27,-1.45,10.08
2397.0,-0.25,-1.5,10.14
2410.0,-0.21,-1.44,10.16
2423.0,-0.12,-1.35,10.06
2436.0,-0.17,-1.26,9.88
2448.0,-0.25,-1.22,9.76
2461.0,-0.32,-1.27,9.78
2474.0,-0.34,-1.34,9.9
2487.0,-0.38,-1.32,9.88
2500.0,-0.37,-1.31,9.89
2513.0,-0.47,-1.29,9.83
2526.0,-0.47,-1.35,9.91
2539.0,-0.33,-1.37,9.97
2551.0,-0.2,-1.35,10.04
2564.0,-0.2,-1.35,10.07
2577.0,-0.28,-1.35,9.95
2590.0,-0.4,-1.37,9.9
2603.0,-0.44,-1.37,9.91
2616.0,-0.29,-1.34,9.84
2629.0,-0.16,-1.29,9.87
2642.0,-0.15,-1.27,9.85
2654.0,-0.17,-1.26,9.84
2667.0,-0.2,-1.24,9.84
2680.0,-0.24,-1.31,9.94
2693.0,-0.32,-1.41,10.06
2706.0,-0.31,-1.38,10.0
2719.0,-0.25,-1.32,9.84
2732.0,-0.28,-1.22,9.7
2745.0,-0.39,-1.2,9.65
2757.0,-0.42,-1.26,9.84
2770.0,-0.35,-1.36,10.08
2783.0,-0.29,-1.5,10.28
2796.0,-0.27,-1.57,10.33
2809.0,-0.26,-1.58,10.26
2822.0,-0.3,-1.53,10.13
2835.0,-0.32,-1.48,10.02
2848.0,-0.38,-1.43,9.92
2860.0,-0.37,-1.39,9.78
2873.0,-0.32,-1.38,9.71
2886.0,-0.3,-1.36,9.66
2899.0,-0.27,-1.34,9.66
2912.0,-0.23,-1.37,9.8
2925.0,-0.22,-1.41,9.98
2938.0,-0.19,-1.48,10.2
2951.0,-0.19,-1.55,10.29
2963.0,-0.19,-1.56,10.28
2976.0,-0.19,-1.49,10.12
2989.0,-0.23,-1.41,9.97
3002.0,-0.26,-1.32,9.8
3015.0,-0.24,-1.3,9.76
3028.0,-0.29,-1.32,9.78
3041.0,-0.35,-1.34,9.82
3054.0,-0.35,-1.37,9.9
3066.0,-0.37,-1.41,9.88
3079.0,-0.31,-1.45,9.98
3092.0,-0.33,-1.47,9.98
3105.0,-0.38,-1.5,9.99
3118.0,-0.37,-1.52,10.07
3131.0,-0.33,-1.53,10.04
3144.0,-0.37,-1.52,9.98
3157.0,-0.41,-1.5,9.99
3169.0,-0.37,-1.46,9.88
3182.0,-0.4,-1.42,9.84
3195.0,-0.36,-1.37,9.74
3208.0,-0.32,-1.32,9.76
3221.0,-0.22,-1.31,9.82
3234.0,-0.18,-1.35,10.01
3247.0,-0.2,-1.36,10.16
3260.0,-0.25,-1.36,10.13
3272.0,-0.31,-1.33,10.04
3285.0,-0.35,-1.3,9.98
3298.0,-0.37,-1.3,9.91
3311.0,-0.31,-1.37,9.99
3324.0,-0.2,-1.34,10.06
3337.0,-0.24,-1.33,9.98
3350.0,-0.3,-1.24,9.8
3363.0,-0.44,-1.22,9.68
3375.0,-0.43,-1.24,9.74
3388.0,-0.36,-1.33,9.92
3401.0,-0.26,-1.41,10.02
3414.0,-0.21,-1.44,10.07
3427.0,-0.15,-1.41,9.96
3440.0,-0.1,-1.33,9.85
3453.0,-0.09,-1.29,9.73
3466.0,-0.17,-1.33,9.75
3478.0,-0.25,-1.41,9.92
3491.0,-0.26,-1.49,10.07
3504.0,-0.27,-1.56,10.19
3517.0,-0.27,-1.59,10.22
3530.0,-0.23,-1.55,10.23
3543.0,-0.23,-1.47,10.08
3556.0,-0.29,-1.38,9.92
3569.0,-0.37,-1.31,9.75
3581.0,-0.41,-1.26,9.68
3594.0,-0.42,-1.3,9.65
3607.0,-0.48,-1.35,9.75
3620.0,-0.5,-1.46,9.9
3633.0,-0.41,-1.55,10.07
3646.0,-0.34,-1.58,10.1
3659.0,-0.32,-1.54,9.98
3672.0,-0.31,-1.49,9.89
3684.0,-0.4,-1.46,9.84
3697.0,-0.45,-1.47,9.79
3710.0,-0.53,-1.64,9.98
3723.0,-0.51,-1.69,9.99
3736.0,-0.41,-1.67,9.98
3749.0,-0.35,-1.5,9.83
3762.0,-0.42,-1.4,9.75
3775.0,-0.41,-1.39,9.83
3787.0,-0.39,-1.36,9.93
3800.0,-0.41,-1.41,9.94
3813.0,-0.34,-1.39,9.9
3826.0,-0.34,-1.43,10.03
3839.0,-0.27,-1.37,10.03
3852.0,-0.26,-1.35,10.1
3865.0,-0.24,-1.3,10.02
3878.0,-0.22,-1.26,9.97
3890.0,-0.18,-1.16,9.84
3903.0,-0.19,-1.14,9.76
3916.0,-0.27,-1.19,9.73
3929.0,-0.36,-1.31,9.91
3942.0,-0.3,-1.35,10.01
3955.0,-0.24,-1.35,10.1
3968.0,-0.19,-1.34,10.07
3981.0,-0.11,-1.32,9.95
3993.0,-0.08,-1.25,9.91
4006.0,-0.19,-1.27,9.91
4019.0,-0.25,-1.35,9.93
4032.0,-0.23,-1.36,9.99
4045.0,-0.25,-1.36,10.03
4058.0,-0.26,-1.34,9.99
4071.0,-0.3,-1.34,9.89
4084.0,-0.36,-1.36,9.84
4096.0,-0.36,-1.39,9.87
4109.0,-0.29,-1.39,9.87
4122.0,-0.23,-1.45,10.01
4135.0,-0.24,-1.46,10.02
4148.0,-0.31,-1.5,10.03
4161.0,-0.33,-1.48,9.98
4174.0,-0.34,-1.47,9.95
4187.0,-0.29,-1.44,9.83
4199.0,-0.32,-1.44,9.76
4212.0,-0.29,-1.42,9.73
4225.0,-0.29,-1.45,9.83
4238.0,-0.29,-1.47,9.93
4251.0,-0.28,-1.46,10.0
4264.0,-0.38,-1.52,10.04
4277.0,-0.38,-1.53,10.09
4290.0,-0.33,-1.48,10.05
4302.0,-0.39,-1.45,9.98
4315.0,-0.43,-1.44,9.89
4328.0,-0.36,-1.43,9.9
4341.0,-0.37,-1.44,9.93
4354.0,-0.44,-1.46,9.96
4367.0,-0.42,-1.43,9.93
4380.0,-0.41,-1.4,9.86
4393.0,-0.29,-1.36,9.88
4405.0,-0.25,-1.36,9.85
4418.0,-0.24,-1.39,9.89
4431.0,-0.21,-1.47,10.01
4444.0,-0.24,-1.54,10.08
4457.0,-0.27,-1.56,10.11
4470.0,-0.37,-1.55,9.93
4483.0,-0.4,-1.53,9.86
4496.0,-0.3,-1.48,9.8
4508.0,-0.22,-1.45,9.84
4521.0,-0.25,-1.46,9.92
4534.0,-0.33,-1.48,9.97
4547.0,-0.35,-1.46,9.97
4560.0,-0.35,-1.44,9.92
4573.0,-0.33,-1.43,9.89
4586.0,-0.28,-1.46,9.98
4599.0,-0.26,-1.46,9.99
4611.0,-0.28,-1.43,9.96
4624.0,-0.29,-1.39,9.92
4637.0,-0.33,-1.38,9.82
4650.0,-0.36,-1.39,9.83
4663.0,-0.33,-1.42,9.87
4676.0,-0.39,-1.47,9.92
4689.0,-0.4,-1.47,9.98
4702.0,-0.37,-1.48,10.03
4714.0,-0.42,-1.49,9.97
4727.0,-0.45,-1.48,9.96
4740.0,-0.38,-1.46,9.9
4753.0,-0.32,-1.48,9.91
4766.0,-0.39,-1.47,9.97
4779.0,-0.45,-1.51,9.96
4792.0,-0.4,-1.53,10.01
4805.0,-0.38,-1.53,10.04
4817.0,-0.41,-1.5,9.95
4830.0,-0.42,-1.48,9.91
4843.0,-0.38,-1.41,9.78
4856.0,-0.3,-1.41,9.82
4869.0,-0.31,-1.41,9.82
4882.0,-0.26,-1.42,9.91
4895.0,-0.12,-1.43,10.01
4908.0,-0.06,-1.41,9.96
4920.0,-0.12,-1.45,10.01
4933.0,-0.14,-1.42,9.93
4946.0,-0.16,-1.4,9.88
4959.0,-0.13,-1.38,9.93
4972.0,-0.17,-1.41,9.94
4985.0,-0.19,-1.41,9.93
4998.0,-0.29,-1.41,9.87
5011.0,-0.39,-1.44,9.89
5023.0,-0.4,-1.5,9.92
5036.0,-0.38,-1.56,10.06
5049.0,-0.36,-1.64,10.12
5062.0,-0.37,-1.63,10.1
5075.0,-0.42,-1.57,9.98
5088.0,-0.44,-1.51,9.82
5101.0,-0.45,-1.43,9.64
5114.0,-0.45,-1.39,9.6
5126.0,-0.3,-1.37,9.71
5139.0,-0.18,-1.37,9.8
5152.0,-0.2,-1.38,9.9
5165.0,-0.23,-1.38,9.97
5178.0,-0.27,-1.37,10.02
5191.0,-0.34,-1.43,10.08
5204.0,-0.35,-1.42,10.07
5217.0,-0.33,-1.4,10.06
5229.0,-0.38,-1.44,10.06
5242.0,-0.37,-1.45,10.09
5255.0,-0.33,-1.41,9.96
5268.0,-0.34,-1.36,9.94
5281.0,-0.26,-1.37,9.92
5294.0,-0.22,-1.38,9.92
5307.0,-0.3,-1.39,9.9
5320.0,-0.39,-1.39,9.83
5332.0,-0.42,-1.41,9.81
5345.0,-0.41,-1.44,9.8
5358.0,-0.42,-1.5,9.86
5371.0,-0.32,-1.49,9.91
5384.0,-0.31,-1.51,9.94
5397.0,-0.26,-1.41,9.84
5410.0,-0.32,-1.39,9.87
5423.0,-0.39,-1.39,9.88
5435.0,-0.31,-1.4,9.92
5448.0,-0.25,-1.41,9.96
5461.0,-0.24,-1.43,9.99
5474.0,-0.26,-1.44,10.02
5487.0,-0.28,-1.43,9.91
5500.0,-0.25,-1.42,9.88
5513.0,-0.19,-1.39,9.83
5526.0,-0.23,-1.4,9.83
5538.0,-0.24,-1.43,9.91
5551.0,-0.18,-1.5,10.03
5564.0,-0.14,-1.55,10.12
5577.0,-0.19,-1.53,10.16
5590.0,-0.2,-1.48,10.09
5603.0,-0.22,-1.35,9.92
5616.0,-0.23,-1.25,9.75
5629.0,-0.23,-1.14,9.61
5641.0,-0.28,-1.16,9.64
5654.0,-0.21,-1.21,9.81
5667.0,-0.14,-1.32,9.99
5680.0,-0.12,-1.46,10.12
5693.0,-0.06,-1.46,10.06
5706.0,-0.0,-1.51,10.13
5719.0,0.02,-1.52,10.09
5731.0,-0.0,-1.48,9.97
5744.0,-0.16,-1.44,9.84
5757.0,-0.26,-1.41,9.76
5770.0,-0.3,-1.35,9.71
5783.0,-0.28,-1.31,9.74
5796.0,-0.25,-1.34,9.8
5809.0,-0.16,-1.37,9.91
5822.0,-0.16,-1.45,10.13
5834.0,-0.14,-1.5,10.23
5847.0,-0.23,-1.6,10.4
5860.0,-0.23,-1.64,10.4
5873.0,-0.24,-1.6,10.19
5886.0,-0.27,-1.53,9.93
5899.0,-0.29,-1.53,9.84
5912.0,-0.27,-1.53,9.83
5925.0,-0.27,-1.56,9.9
5937.0,-0.16,-1.56,9.94
5950.0,-0.16,-1.54,9.88
5963.0,-0.17,-1.51,9.8
5976.0,-0.18,-1.49,9.78
5989.0,-0.18,-1.53,9.84
6002.0,-0.21,-1.55,9.91
6015.0,-0.21,-1.53,9.98
6028.0,-0.15,-1.47,10.0
6040.0,-0.15,-1.39,9.99
6053.0,-0.15,-1.3,9.93
6066.0,-0.18,-1.36,9.95
6079.0,-0.21,-1.47,10.06
6092.0,-0.18,-1.55,10.17
6105.0,-0.13,-1.55,10.14
6118.0,-0.13,-1.44,9.84
6131.0,-0.15,-1.53,9.92
6143.0,-0.16,-1.51,9.85
6156.0,-0.21,-1.53,9.86
6169.0,-0.31,-1.55,9.83
6182.0,-0.31,-1.54,9.86
6195.0,-0.21,-1.5,9.87
6208.0,-0.15,-1.45,9.86
6221.0,-0.15,-1.47,9.87
6234.0,-0.19,-1.52,9.93
6246.0,-0.24,-1.56,10.0
6259.0,-0.25,-1.57,10.08
6272.0,-0.18,-1.5,9.99
6285.0,-0.16,-1.45,9.92
6298.0,-0.2,-1.41,9.85
6311.0,-0.21,-1.37,9.83
6324.0,-0.17,-1.37,9.84
6337.0,-0.16,-1.35,9.79
6349.0,-0.19,-1.36,9.76
6362.0,-0.17,-1.38,9.81
6375.0,-0.13,-1.44,10.01
6388.0,-0.07,-1.55,10.26
6401.0,-0.11,-1.56,10.32
6414.0,-0.2,-1.5,10.13
6427.0,-0.23,-1.44,9.96
6440.0,-0.2,-1.4,9.85
6452.0,-0.19,-1.42,9.79
6465.0,-0.29,-1.46,9.84
6478.0,-0.34,-1.5,9.86
6491.0,-0.36,-1.5,9.86
6504.0,-0.29,-1.56,9.94
6517.0,-0.17,-1.6,10.03
6530.0,-0.17,-1.62,10.05
6543.0,-0.14,-1.58,10.04
6555.0,-0.14,-1.52,9.94
6568.0,-0.13,-1.48,9.91
6581.0,-0.13,-1.42,9.85
6594.0,-0.2,-1.38,9.85
6607.0,-0.18,-1.35,9.85
6620.0,-0.13,-1.36,9.77
6633.0,-0.13,-1.36,9.82
6646.0,-0.1,-1.39,9.88
6658.0,-0.1,-1.45,10.02
6671.0,-0.12,-1.47,10.12
6684.0,-0.22,-1.43,10.02
6697.0,-0.31,-1.42,9.94
6710.0,-0.3,-1.4,9.84
6723.0,-0.33,-1.43,9.85
6736.0,-0.31,-1.52,9.99
6749.0,-0.31,-1.54,9.98
6761.0,-0.28,-1.56,10.03
6774.0,-0.26,-1.53,10.0
6787.0,-0.25,-1.5,9.94
6800.0,-0.22,-1.46,9.89
6813.0,-0.25,-1.45,9.86
6826.0,-0.28,-1.48,9.9
6839.0,-0.21,-1.5,9.93
6852.0,-0.17,-1.49,9.99
6864.0,-0.18,-1.5,10.04
6877.0,-0.14,-1.47,9.97
6890.0,-0.23,-1.41,9.89
6903.0,-0.28,-1.41,9.9
6916.0,-0.24,-1.46,9.94
6929.0,-0.2,-1.47,9.97
6942.0,-0.16,-1.47,9.92
6955.0,-0.2,-1.43,9.83
6967.0,-0.26,-1.46,9.89
6980.0,-0.27,-1.51,9.99
6993.0,-0.22,-1.51,10.04
7006.0,-0.19,-1.46,9.99
7019.0,-0.2,-1.39,9.83
7032.0,-0.18,-1.4,9.85
7045.0,-0.2,-1.39,9.88
7058.0,-0.18,-1.41,9.94
7070.0,-0.22,-1.45,9.92
7083.0,-0.22,-1.45,9.89
7096.0,-0.26,-1.44,9.86
7109.0,-0.23,-1.46,9.9
7122.0,-0.23,-1.49,9.92
7135.0,-0.19,-1.52,10.05
7148.0,-0.19,-1.55,10.11
7161.0,-0.28,-1.52,10.03
7173.0,-0.31,-1.53,10.02
7186.0,-0.26,-1.51,9.97
7199.0,-0.24,-1.44,9.87
7212.0,-0.27,-1.46,9.85
7225.0,-0.28,-1.44,9.82
7238.0,-0.29,-1.44,9.86
7251.0,-0.23,-1.49,9.99
7264.0,-0.19,-1.48,10.01
7276.0,-0.21,-1.47,9.97
7289.0,-0.14,-1.41,9.92
7302.0,-0.17,-1.37,9.91
7315.0,-0.15,-1.36,9.9
7328.0,-0.06,-1.36,9.91
7341.0,-0.12,-1.36,9.89
7354.0,-0.17,-1.4,9.91
7367.0,-0.23,-1.45,9.95
7379.0,-0.26,-1.49,9.97
7392.0,-0.24,-1.52,9.98
7405.0,-0.22,-1.51,9.91
7418.0,-0.18,-1.52,9.96
7431.0,-0.14,-1.55,9.98
7444.0,-0.19,-1.57,10.06
7457.0,-0.24,-1.56,10.1
7470.0,-0.24,-1.56,10.04
7482.0,-0.28,-1.51,9.98
7495.0,-0.24,-1.46,9.94
7508.0,-0.24,-1.42,9.88
7521.0,-0.22,-1.39,9.87
7534.0,-0.23,-1.39,9.9
7547.0,-0.18,-1.39,9.89
7560.0,-0.15,-1.37,9.93
7573.0,-0.09,-1.38,10.01
7585.0,-0.13,-1.37,9.91
7598.0,-0.22,-1.36,9.84
7611.0,-0.29,-1.33,9.74
7624.0,-0.3,-1.35,9.73
7637.0,-0.22,-1.44,9.88
7650.0,-0.14,-1.51,10.02
7663.0,-0.07,-1.53,10.09
7676.0,-0.01,-1.5,10.07
7688.0,-0.11,-1.43,10.0
7701.0,-0.14,-1.43,9.94
7714.0,-0.15,-1.4,9.86
7727.0,-0.21,-1.41,9.84
7740.0,-0.25,-1.4,9.82
7753.0,-0.27,-1.39,9.82
7766.0,-0.25,-1.38,9.81
7779.0,-0.23,-1.39,9.87
7791.0,-0.21,-1.47,10.02
7804.0,-0.17,-1.48,10.11
7817.0,-0.19,-1.46,10.05
7830.0,-0.22,-1.45,9.99
7843.0,-0.25,-1.47,9.97
7856.0,-0.19,-1.5,10.01
7869.0,-0.2,-1.51,9.97
7882.0,-0.21,-1.45,9.83
7894.0,-0.21,-1.44,9.82
7907.0,-0.25,-1.44,9.8
7920.0,-0.28,-1.55,9.98
7933.0,-0.24,-1.59,10.06
7946.0,-0.06,-1.53,10.01
7959.0,-0.08,-1.5,9.99
7972.0,-0.33,-1.44,9.85
7985.0,-0.35,-1.43,9.84
7997.0,-0.24,-1.46,9.99
8010.0,-0.22,-1.56,10.08
8023.0,-0.22,-1.59,10.09
8036.0,-0.14,-1.55,10.07
8049.0,-0.15,-1.49,9.95
8062.0,-0.26,-1.43,9.84
8075.0,-0.34,-1.43,9.79
8088.0,-0.29,-1.47,9.83
8100.0,-0.18,-1.47,9.85
8113.0,-0.2,-1.46,9.88
8126.0,-0.15,-1.46,9.94
8139.0,-0.14,-1.42,9.96
8152.0,-0.13,-1.43,9.99
8165.0,-0.14,-1.46,10.04
8178.0,-0.12,-1.51,10.08
8191.0,-0.13,-1.51,10.01
8203.0,-0.21,-1.46,9.88
8216.0,-0.31,-1.4,9.8
8229.0,-0.3,-1.39,9.77
8242.0,-0.23,-1.38,9.82
8255.0,-0.25,-1.43,9.9
8268.0,-0.29,-1.48,9.96
8281.0,-0.21,-1.52,10.1
8294.0,-0.15,-1.51,10.1
8306.0,-0.2,-1.5,10.02
8319.0,-0.19,-1.47,9.91
8332.0,-0.2,-1.46,9.82
8345.0,-0.2,-1.48,9.83
8358.0,-0.16,-1.5,9.91
8371.0,-0.2,-1.5,9.98
8384.0,-0.22,-1.51,10.02
8397.0,-0.19,-1.43,9.95
8409.0,-0.23,-1.39,9.87
8422.0,-0.18,-1.36,9.79
8435.0,-0.2,-1.34,9.75
8448.0,-0.2,-1.38,9.86
8461.0,-0.19,-1.4,9.95
8474.0,-0.13,-1.37,9.94
8487.0,-0.27,-1.41,9.86
8500.0,-0.25,-1.6,10.07
8512.0,-0.24,-1.64,10.17
8525.0,-0.15,-1.65,10.23
8538.0,-0.2,-1.57,10.06
8551.0,-0.19,-1.52,9.92
8564.0,-0.26,-1.49,9.85
8577.0,-0.29,-1.52,9.85
8590.0,-0.27,-1.5,9.93
8603.0,-0.25,-1.51,9.93
8615.0,-0.25,-1.46,9.89
8628.0,-0.22,-1.43,9.87
8641.0,-0.22,-1.41,9.86
8654.0,-0.18,-1.44,9.98
8667.0,-0.11,-1.44,10.01
8680.0,-0.15,-1.43,9.98
8693.0,-0.17,-1.42,9.89
8706.0,-0.24,-1.41,9.81
8718.0,-0.29,-1.44,9.83
8731.0,-0.23,-1.49,9.9
8744.0,-0.23,-1.51,9.95
8757.0,-0.22,-1.54,9.97
8770.0,-0.18,-1.53,9.98
8783.0,-0.2,-1.54,10.0
8796.0,-0.22,-1.58,10.06
8809.0,-0.27,-1.6,10.08
8821.0,-0.32,-1.53,9.96
8834.0,-0.19,-1.43,9.97
8847.0,-0.09,-1.39,9.92
8860.0,-0.2,-1.39,9.9
8873.0,-0.22,-1.38,9.92
8886.0,-0.24,-1.38,9.9
8899.0,-0.22,-1.37,9.92
8912.0,-0.15,-1.34,9.93
8924.0,-0.17,-1.34,9.96
8937.0,-0.2,-1.35,9.92
8950.0,-0.31,-1.41,9.88
8963.0,-0.29,-1.46,9.91
8976.0,-0.23,-1.53,10.01
8989.0,-0.26,-1.58,10.06
9002.0,-0.27,-1.59,10.06
9015.0,-0.22,-1.58,9.97
9027.0,-0.19,-1.54,9.93
9040.0,-0.15,-1.48,9.82
9053.0,-0.13,-1.39,9.76
9066.0,-0.09,-1.36,9.82
9079.0,-0.03,-1.32,9.77
9092.0,-0.03,-1.3,9.79
9105.0,-0.03,-1.3,9.84
9118.0,-0.05,-1.28,9.86
9130.0,-0.08,-1.24,9.8
9143.0,-0.09,-1.27,9.79
9156.0,-0.13,-1.32,9.78
9169.0,-0.18,-1.4,9.94
9182.0,-0.18,-1.52,10.03
9195.0,-0.26,-1.6,10.12
9208.0,-0.35,-1.68,10.17
9221.0,-0.46,-1.67,10.04
9233.0,-0.5,-1.69,9.97
9246.0,-0.28,-1.63,9.87
9259.0,-0.26,-1.57,9.83
9272.0,-0.28,-1.58,9.84
9285.0,-0.33,-1.56,9.78
9298.0,-0.3,-1.54,9.75
9311.0,-0.26,-1.5,9.83
9324.0,-0.19,-1.49,10.0
9336.0,-0.13,-1.5,10.07
9349.0,-0.11,-1.49,10.18
9362.0,-0.04,-1.46,10.2
9375.0,-0.02,-1.37,10.1
9388.0,-0.02,-1.23,9.96
9401.0,-0.04,-1.15,9.87
9414.0,-0.17,-1.08,9.73
9427.0,-0.26,-1.14,9.81
9439.0,-0.2,-1.24,9.97
9452.0,-0.1,-1.37,10.16
9465.0,0.02,-1.47,10.31
9478.0,-0.03,-1.5,10.26
9491.0,-0.04,-1.51,10.23
9504.0,-0.03,-1.5,10.12
9517.0,-0.08,-1.48,10.05
9530.0,-0.13,-1.53,10.05
9542.0,-0.19,-1.58,9.97
9555.0,-0.23,-1.6,9.84
9568.0,-0.37,-1.61,9.69
9581.0,-0.39,-1.56,9.62
9594.0,-0.27,-1.4,9.48
9607.0,-0.2,-1.33,9.49
9620.0,-0.04,-1.35,9.6
9633.0,0.01,-1.47,9.84
9645.0,-0.15,-1.65,10.08
9658.0,-0.33,-1.79,10.27
9671.0,-0.33,-1.92,10.42
9684.0,-0.35,-1.82,10.3
9697.0,-0.39,-1.66,10.02
9710.0,-0.39,-1.45,9.68
9723.0,-0.45,-1.32,9.42
9736.0,-0.46,-1.31,9.33
9748.0,-0.43,-1.38,9.37
9761.0,-0.45,-1.54,9.57
9774.0,-0.48,-1.68,9.85
9787.0,-0.53,-1.79,10.18
9800.0,-0.62,-1.83,10.43
9813.0,-0.54,-1.75,10.57
9826.0,-0.42,-1.67,10.57
9839.0,-0.42,-1.63,10.55
9851.0,-0.27,-1.56,10.35
9864.0,-0.24,-1.41,10.04
9877.0,-0.21,-1.36,9.77
9890.0,-0.15,-1.36,9.53
9903.0,-0.17,-1.43,9.47
9916.0,-0.15,-1.56,9.53
9929.0,-0.1,-1.7,9.72
9942.0,-0.07,-1.69,9.68
9954.0,-0.07,-1.75,9.78
9967.0,-0.08,-1.73,9.79
9980.0,-0.25,-1.69,9.68
9993.0,-0.54,-1.8,9.81
10006.0,-0.78,-1.92,10.01
10019.0,-0.85,-1.89,9.99
10032.0,-0.93,-1.82,9.94
10045.0,-0.99,-1.7,9.71
10057.0,-0.94,-1.56,9.66
10070.0,-0.84,-1.47,9.7
10083.0,-0.78,-1.51,9.9
10096.0,-0.58,-1.48,10.05
10109.0,-0.55,-1.5,10.18
10122.0,-0.5,-1.51,10.24
10135.0,-0.47,-1.46,10.1
10148.0,-0.1,-1.4,10.07
10160.0,0.03,-1.37,9.98
10173.0,-0.04,-1.42,9.78
10186.0,-0.14,-1.46,9.65
10199.0,-0.19,-1.5,9.59
10212.0,-0.26,-1.63,9.7
10225.0,-0.35,-1.76,9.89
10238.0,-0.31,-1.79,9.91
10250.0,-0.29,-1.74,9.87
10263.0,-0.34,-1.63,9.66
10276.0,-0.37,-1.62,9.63
10289.0,-0.44,-1.72,9.8
10302.0,-0.55,-1.84,10.02
10315.0,-0.66,-1.95,10.22
10328.0,-0.8,-1.92,10.18
10341.0,-0.66,-1.86,10.06
10353.0,-0.6,-1.7,9.89
10366.0,-0.47,-1.58,9.79
10379.0,-0.35,-1.54,9.81
10392.0,-0.31,-1.55,10.0
10405.0,-0.28,-1.67,10.25
10418.0,-0.19,-1.68,10.34
10431.0,-0.14,-1.56,10.26
10444.0,-0.09,-1.45,10.11
10456.0,-0.06,-1.31,9.88
10469.0,-0.11,-1.22,9.69
10482.0,-0.15,-1.18,9.55
10495.0,-0.2,-1.19,9.45
10508.0,-0.23,-1.26,9.49
10521.0,-0.28,-1.36,9.65
10534.0,-0.34,-1.46,9.8
10547.0,-0.28,-1.54,9.98
10559.0,-0.13,-1.61,10.09
10572.0,-0.2,-1.63,10.14
10585.0,-0.42,-1.72,10.2
10598.0,-0.47,-1.73,10.19
10611.0,-0.47,-1.67,10.03
10624.0,-0.43,-1.61,9.9
10637.0,-0.41,-1.51,9.71
10650.0,-0.34,-1.43,9.62
10662.0,-0.36,-1.45,9.62
10675.0,-0.33,-1.47,9.78
10688.0,-0.37,-1.56,9.92
10701.0,-0.44,-1.68,10.17
10714.0,-0.34,-1.69,10.18
10727.0,-0.2,-1.62,10.08
10740.0,-0.17,-1.56,9.96
10753.0,-0.14,-1.52,9.93
10765.0,-0.2,-1.53,9.9
10778.0,-0.34,-1.57,9.95
10791.0,-0.38,-1.6,9.99
10804.0,-0.37,-1.58,9.98
10817.0,-0.36,-1.54,9.89
10830.0,-0.28,-1.47,9.77
10843.0,-0.26,-1.47,9.8
10856.0,-0.22,-1.47,9.86
10868.0,-0.24,-1.47,9.89
10881.0,-0.26,-1.49,9.89
10894.0,-0.31,-1.51,9.85
10907.0,-0.29,-1.53,9.92
10920.0,-0.23,-1.52,9.97
10933.0,-0.19,-1.47,9.93
10946.0,-0.18,-1.45,9.91
10959.0,-0.15,-1.41,9.87
10971.0,-0.19,-1.4,9.79
10984.0,-0.32,-1.47,9.87
10997.0,-0.43,-1.55,9.99
11010.0,-0.56,-1.63,10.06
11023.0,-0.5,-1.62,9.97
11036.0,-0.42,-1.53,9.77
11049.0,-0.29,-1.46,9.65
11062.0,-0.08,-1.49,9.81
11074.0,-0.23,-1.57,9.92
11087.0,-0.46,-1.79,10.26
11100.0,-0.26,-1.84,10.39
11113.0,-0.13,-1.8,10.3
11126.0,-0.06,-1.69,10.13
11139.0,-0.1,-1.59,9.96
11152.0,-0.25,-1.5,9.77
11165.0,-0.31,-1.45,9.7
11177.0,-0.26,-1.45,9.68
11190.0,-0.28,-1.51,9.78
11203.0,-0.31,-1.49,9.79
11216.0,-0.38,-1.54,9.87
11229.0,-0.32,-1.59,10.03
11242.0,-0.24,-1.62,10.07
11255.0,-0.27,-1.59,10.09
11268.0,-0.4,-1.56,10.0
11280.0,-0.53,-1.53,9.86
11293.0,-0.55,-1.5,9.73
11306.0,-0.52,-1.53,9.7
11319.0,-0.46,-1.52,9.75
11332.0,-0.41,-1.55,9.84
11345.0,-0.32,-1.59,9.98
11358.0,-0.27,-1.64,10.06
11371.0,-0.32,-1.69,10.16
11383.0,-0.36,-1.66,10.03
11396.0,-0.42,-1.61,9.89
11409.0,-0.59,-1.57,9.73
11422.0,-0.3,-1.47,9.69
11435.0,-0.22,-1.49,9.73
11448.0,-0.4,-1.52,9.73
11461.0,-0.36,-1.5,9.8
11474.0,-0.22,-1.52,10.0
11486.0,-0.19,-1.59,10.22
11499.0,-0.31,-1.64,10.24
11512.0,-0.42,-1.62,10.1
11525.0,-0.47,-1.56,9.88
11538.0,-0.46,-1.51,9.74
11551.0,-0.46,-1.49,9.69
11564.0,-0.36,-1.42,9.68
11577.0,-0.33,-1.46,9.74
11589.0,-0.36,-1.49,9.76
11602.0,-0.43,-1.56,9.89
11615.0,-0.4,-1.62,9.99
11628.0,-0.31,-1.63,10.02
11641.0,-0.24,-1.64,10.08
11654.0,-0.21,-1.61,10.05
11667.0,-0.27,-1.53,9.93
11680.0,-0.33,-1.43,9.81
11692.0,-0.39,-1.4,9.72
11705.0,-0.36,-1.4,9.75
11718.0,-0.32,-1.42,9.8
11731.0,-0.33,-1.5,9.89
11744.0,-0.37,-1.6,10.1
11757.0,-0.32,-1.66,10.16
11770.0,-0.29,-1.67,10.1
11783.0,-0.34,-1.65,10.0
11795.0,-0.34,-1.65,9.93
11808.0,-0.29,-1.61,9.88
11821.0,-0.28,-1.63,9.92
11834.0,-0.34,-1.62,9.91
11847.0,-0.4,-1.63,9.9
11860.0,-0.4,-1.59,9.89
11873.0,-0.32,-1.51,9.79
11886.0,-0.24,-1.45,9.73
11898.0,-0.21,-1.44,9.8
11911.0,-0.25,-1.47,9.91
11924.0,-0.32,-1.54,10.03
11937.0,-0.35,-1.57,10.06
11950.0,-0.38,-1.53,9.95
11963.0,-0.42,-1.54,9.88
11976.0,-0.42,-1.56,9.84
11989.0,-0.34,-1.57,9.9
12001.0,-0.35,-1.59,9.91
12014.0,-0.37,-1.67,9.98
12027.0,-0.41,-1.7,10.07
12040.0,-0.33,-1.69,10.04
12053.0,-0.3,-1.68,9.99
12066.0,-0.35,-1.63,9.9
12079.0,-0.33,-1.6,9.83
12092.0,-0.32,-1.56,9.76
12104.0,-0.34,-1.53,9.79
12117.0,-0.37,-1.55,9.88
12130.0,-0.38,-1.57,9.93
12143.0,-0.35,-1.55,9.93
12156.0,-0.32,-1.56,9.96
12169.0,-0.25,-1.55,9.94
12182.0,-0.26,-1.51,9.88
12195.0,-0.32,-1.52,9.92
12207.0,-0.37,-1.55,9.93
12220.0,-0.35,-1.61,10.06
12233.0,-0.31,-1.67,10.02
12246.0,-0.35,-1.68,10.06
12259.0,-0.4,-1.68,10.0
12272.0,-0.4,-1.58,9.9
12285.0,-0.34,-1.5,9.79
12298.0,-0.35,-1.46,9.68
12310.0,-0.37,-1.5,9.77
12323.0,-0.36,-1.57,9.91
12336.0,-0.36,-1.65,9.98
12349.0,-0.41,-1.65,9.97
12362.0,-0.42,-1.59,9.87
12375.0,-0.39,-1.51,9.7
12388.0,-0.35,-1.48,9.65
12401.0,-0.35,-1.5,9.76
12413.0,-0.34,-1.6,9.94
12426.0,-0.31,-1.66,10.04
12439.0,-0.37,-1.68,10.19
12452.0,-0.37,-1.58,10.02
12465.0,-0.28,-1.63,10.16
12478.0,-0.27,-1.62,10.12
12491.0,-0.38,-1.61,10.06
12504.0,-0.39,-1.56,9.96
12516.0,-0.39,-1.55,9.84
12529.0,-0.42,-1.53,9.7
12542.0,-0.44,-1.55,9.67
12555.0,-0.42,-1.52,9.63
12568.0,-0.39,-1.55,9.7
12581.0,-0.36,-1.6,9.86
12594.0,-0.32,-1.64,10.02
12607.0,-0.25,-1.67,10.09
12619.0,-0.23,-1.61,10.07
12632.0,-0.24,-1.55,9.93
12645.0,-0.29,-1.5,9.84
12658.0,-0.32,-1.46,9.77
12671.0,-0.34,-1.5,9.85
12684.0,-0.4,-1.56,9.97
12697.0,-0.45,-1.6,10.0
12710.0,-0.44,-1.59,9.92
12722.0,-0.49,-1.56,9.84
12735.0,-0.4,-1.54,9.84
12748.0,-0.34,-1.57,9.92
12761.0,-0.38,-1.63,9.98
12774.0,-0.37,-1.64,10.01
12787.0,-0.36,-1.63,9.95
12800.0,-0.38,-1.61,9.91
12813.0,-0.38,-1.59,9.83
12825.0,-0.37,-1.58,9.77
12838.0,-0.4,-1.58,9.8
12851.0,-0.39,-1.59,9.8
12864.0,-0.45,-1.58,9.8
