timestamp,accX,accY,accZ
2.0,0.73,-0.4,9.92
15.0,0.48,-0.3,7.97
28.0,0.4,-0.37,9.52
41.0,0.29,-0.36,9.89
54.0,0.32,-0.36,10.11
67.0,0.37,-0.39,10.24
79.0,0.4,-0.4,10.25
92.0,0.39,-0.42,10.19
105.0,0.38,-0.4,10.05
118.0,0.39,-0.38,9.93
131.0,0.43,-0.33,9.89
144.0,0.48,-0.28,9.97
157.0,0.45,-0.22,10.01
169.0,0.4,-0.21,10.04
182.0,0.36,-0.22,10.0
195.0,0.29,-0.22,10.0
208.0,0.26,-0.26,10.07
221.0,0.23,-0.31,10.1
234.0,0.23,-0.38,10.09
247.0,0.26,-0.4,10.09
259.0,0.3,-0.42,10.05
272.0,0.33,-0.4,10.03
285.0,0.37,-0.37,10.03
298.0,0.45,-0.35,10.1
311.0,0.53,-0.29,10.15
324.0,0.58,-0.28,10.18
337.0,0.51,-0.28,10.07
349.0,0.41,-0.3,9.93
362.0,0.33,-0.33,9.81
375.0,0.28,-0.36,9.84
388.0,0.34,-0.38,9.99
401.0,0.43,-0.4,10.18
414.0,0.5,-0.37,10.26
427.0,0.49,-0.32,10.22
439.0,0.47,-0.3,10.04
452.0,0.4,-0.31,9.92
465.0,0.34,-0.36,9.9
478.0,0.34,-0.42,9.94
491.0,0.38,-0.41,10.07
504.0,0.46,-0.35,10.13
517.0,0.52,-0.33,10.16
529.0,0.52,-0.33,10.12
542.0,0.47,-0.34,10.06
555.0,0.48,-0.32,10.04
568.0,0.48,-0.36,10.06
581.0,0.48,-0.38,10.05
594.0,0.43,-0.36,10.04
607.0,0.42,-0.34,10.05
619.0,0.43,-0.35,10.05
632.0,0.47,-0.35,10.14
645.0,0.46,-0.36,10.13
658.0,0.4,-0.33,10.02
671.0,0.42,-0.3,10.03
684.0,0.44,-0.31,9.95
697.0,0.41,-0.34,9.94
709.0,0.4,-0.34,10.07
722.0,0.42,-0.35,10.22
735.0,0.39,-0.37,10.25
748.0,0.28,-0.39,10.1
761.0,0.2,-0.39,9.95
774.0,0.27,-0.36,9.88
787.0,0.39,-0.3,9.94
799.0,0.43,-0.3,10.01
812.0,0.46,-0.28,10.05
825.0,0.47,-0.27,10.09
838.0,0.5,-0.3,10.11
851.0,0.46,-0.35,10.06
864.0,0.4,-0.4,10.05
877.0,0.35,-0.43,10.09
889.0,0.35,-0.41,10.17
902.0,0.41,-0.35,10.18
915.0,0.43,-0.27,10.04
928.0,0.39,-0.19,9.94
941.0,0.38,-0.13,9.86
954.0,0.34,-0.17,9.82
967.0,0.29,-0.24,9.88
979.0,0.26,-0.33,9.98
992.0,0.25,-0.38,10.12
1005.0,0.27,-0.45,10.25
1018.0,0.25,-0.49,10.17
1031.0,0.28,-0.46,10.08
1044.0,0.28,-0.37,10.01
1057.0,0.38,-0.31,10.04
1069.0,0.48,-0.28,10.06
1082.0,0.54,-0.29,10.12
1095.0,0.55,-0.36,10.15
1108.0,0.47,-0.4,10.12
1121.0,0.44,-0.39,10.06
1134.0,0.43,-0.39,10.03
1147.0,0.4,-0.4,10.02
1159.0,0.4,-0.4,10.04
1172.0,0.4,-0.37,10.08
1185.0,0.43,-0.37,10.15
1198.0,0.45,-0.37,10.15
1211.0,0.44,-0.36,10.1
1224.0,0.41,-0.36,10.02
1237.0,0.4,-0.35,9.97
1249.0,0.41,-0.31,10.0
1262.0,0.42,-0.3,10.1
1275.0,0.45,-0.33,10.17
1288.0,0.44,-0.35,10.06
1301.0,0.34,-0.35,9.99
1314.0,0.3,-0.33,9.97
1327.0,0.34,-0.31,10.05
1339.0,0.43,-0.3,10.11
1352.0,0.45,-0.3,10.08
1365.0,0.4,-0.28,10.04
1378.0,0.35,-0.29,10.0
1391.0,0.34,-0.29,9.96
1404.0,0.41,-0.29,10.06
1417.0,0.54,-0.29,10.2
1429.0,0.6,-0.3,10.19
1442.0,0.48,-0.31,10.06
1455.0,0.36,-0.32,9.92
1468.0,0.33,-0.34,9.95
1481.0,0.33,-0.38,10.08
1494.0,0.33,-0.4,10.09
1507.0,0.34,-0.39,10.09
1519.0,0.4,-0.38,10.11
1532.0,0.45,-0.34,10.13
1545.0,0.47,-0.34,10.06
1558.0,0.52,-0.31,10.04
1571.0,0.5,-0.31,10.06
1584.0,0.45,-0.33,9.98
1597.0,0.36,-0.32,10.01
1609.0,0.34,-0.33,10.01
1622.0,0.37,-0.37,10.12
1635.0,0.39,-0.39,10.11
1648.0,0.36,-0.36,10.07
1661.0,0.39,-0.32,10.0
1674.0,0.47,-0.25,10.02
1687.0,0.46,-0.23,10.03
1699.0,0.42,-0.27,10.02
1712.0,0.4,-0.31,10.09
1725.0,0.37,-0.34,10.14
1738.0,0.39,-0.34,10.12
1751.0,0.37,-0.35,10.01
1764.0,0.33,-0.32,9.93
1777.0,0.31,-0.32,9.93
1789.0,0.37,-0.29,10.04
1802.0,0.45,-0.28,10.1
1815.0,0.46,-0.3,10.08
1828.0,0.41,-0.29,10.05
1841.0,0.39,-0.29,10.07
1854.0,0.39,-0.31,10.06
1867.0,0.38,-0.3,10.02
1879.0,0.33,-0.32,9.98
1892.0,0.32,-0.33,9.97
1905.0,0.35,-0.3,10.08
1918.0,0.37,-0.3,10.12
1931.0,0.39,-0.32,10.13
1944.0,0.36,-0.33,10.08
1957.0,0.29,-0.38,9.99
1969.0,0.29,-0.41,9.99
1982.0,0.37,-0.44,10.05
1995.0,0.46,-0.44,10.14
2008.0,0.5,-0.42,10.14
2021.0,0.5,-0.36,10.16
2034.0,0.48,-0.33,10.11
2047.0,0.44,-0.31,10.01
2059.0,0.35,-0.31,9.95
2072.0,0.3,-0.36,9.98
2085.0,0.28,-0.39,10.1
2098.0,0.3,-0.4,10.11
2111.0,0.33,-0.42,10.11
2124.0,0.36,-0.36,10.09
2137.0,0.41,-0.33,10.09
2149.0,0.43,-0.31,10.04
2162.0,0.38,-0.29,10.01
2175.0,0.39,-0.28,9.98
2188.0,0.36,-0.3,9.99
2201.0,0.36,-0.3,10.0
2214.0,0.33,-0.3,10.04
2227.0,0.37,-0.29,10.11
2239.0,0.39,-0.33,10.14
2252.0,0.4,-0.33,10.12
2265.0,0.36,-0.34,10.06
2278.0,0.31,-0.35,10.03
2291.0,0.32,-0.33,10.02
2304.0,0.32,-0.3,10.01
2317.0,0.36,-0.28,10.05
2329.0,0.37,-0.31,10.06
2342.0,0.31,-0.35,10.01
2355.0,0.29,-0.34,10.02
2368.0,0.32,-0.35,10.1
2381.0,0.34,-0.38,10.11
2394.0,0.39,-0.38,10.13
2407.0,0.43,-0.34,10.06
2419.0,0.42,-0.28,10.04
2432.0,0.42,-0.29,10.06
2445.0,0.4,-0.31,10.04
2458.0,0.37,-0.29,10.06
2471.0,0.37,-0.3,10.05
2484.0,0.32,-0.29,10.0
2497.0,0.25,-0.3,9.99
2509.0,0.24,-0.38,10.04
2522.0,0.27,-0.43,10.12
2535.0,0.29,-0.41,10.19
2548.0,0.29,-0.36,10.12
2561.0,0.35,-0.31,10.11
2574.0,0.35,-0.27,9.99
2587.0,0.32,-0.24,9.87
2599.0,0.33,-0.23,9.92
2612.0,0.37,-0.26,10.03
2625.0,0.36,-0.32,10.12
2638.0,0.34,-0.37,10.15
2651.0,0.36,-0.35,10.16
2664.0,0.4,-0.28,10.13
2677.0,0.35,-0.26,9.99
2689.0,0.2,-0.28,9.85
2702.0,0.11,-0.36,9.79
2715.0,0.11,-0.41,9.89
2728.0,0.26,-0.41,10.13
2741.0,0.35,-0.36,10.29
2754.0,0.38,-0.32,10.2
2767.0,0.36,-0.28,10.08
2779.0,0.32,-0.27,9.94
2792.0,0.27,-0.27,9.86
2805.0,0.24,-0.32,9.94
2818.0,0.28,-0.36,10.07
2831.0,0.31,-0.35,10.21
2844.0,0.33,-0.39,10.21
2857.0,0.35,-0.37,10.2
2869.0,0.4,-0.37,10.17
2882.0,0.39,-0.39,10.05
2895.0,0.33,-0.45,9.95
2908.0,0.26,-0.46,9.94
2921.0,0.29,-0.43,10.07
2934.0,0.4,-0.4,10.24
2947.0,0.48,-0.39,10.33
2959.0,0.43,-0.4,10.23
2972.0,0.26,-0.4,10.02
2985.0,0.13,-0.4,9.89
2998.0,0.14,-0.36,9.89
3011.0,0.24,-0.32,10.01
3024.0,0.29,-0.34,10.09
3037.0,0.27,-0.32,10.09
3049.0,0.26,-0.25,10.05
3062.0,0.28,-0.24,9.97
3075.0,0.31,-0.24,9.98
3088.0,0.28,-0.29,10.02
3101.0,0.23,-0.35,10.02
3114.0,0.19,-0.36,10.01
3127.0,0.17,-0.37,10.02
3139.0,0.2,-0.34,10.09
3152.0,0.21,-0.31,10.08
3165.0,0.22,-0.32,10.08
3178.0,0.22,-0.29,10.03
3191.0,0.2,-0.29,10.0
3204.0,0.22,-0.28,10.0
3217.0,0.21,-0.28,9.98
3229.0,0.23,-0.27,10.03
3242.0,0.26,-0.29,10.11
3255.0,0.26,-0.33,10.09
3268.0,0.2,-0.35,10.03
3281.0,0.17,-0.36,10.01
3294.0,0.17,-0.34,10.03
3307.0,0.18,-0.32,10.04
3319.0,0.21,-0.25,10.07
3332.0,0.37,-0.18,10.08
3345.0,0.46,-0.11,9.99
3358.0,0.39,-0.12,9.83
3371.0,0.18,-0.18,9.66
3384.0,0.07,-0.31,9.82
3397.0,0.04,-0.55,10.06
3409.0,-0.13,-0.76,10.27
3422.0,-0.16,-0.85,10.4
3435.0,-0.04,-0.76,10.36
3448.0,0.0,-0.53,10.2
3461.0,0.25,-0.25,9.73
3474.0,0.65,-0.13,9.72
3487.0,0.48,-0.08,10.01
3499.0,0.38,-0.21,10.1
3512.0,0.19,-0.44,10.09
3525.0,0.03,-0.65,10.09
3538.0,-0.1,-0.82,10.1
3551.0,-0.07,-0.89,10.2
3564.0,0.05,-0.79,10.28
3577.0,0.25,-0.64,10.26
3589.0,0.41,-0.44,10.01
3602.0,0.45,-0.25,9.78
3615.0,0.38,-0.17,9.68
3628.0,0.24,-0.29,9.77
3641.0,0.14,-0.54,9.99
3654.0,0.11,-0.75,10.18
3667.0,0.05,-0.9,10.29
3679.0,0.11,-0.95,10.32
3692.0,0.18,-0.84,10.22
3705.0,0.25,-0.71,10.1
3718.0,0.33,-0.54,10.04
3731.0,0.37,-0.52,10.02
3744.0,0.32,-0.53,10.04
3757.0,0.23,-0.59,10.11
3769.0,0.14,-0.62,10.12
3782.0,0.14,-0.63,10.12
3795.0,0.11,-0.64,10.07
3808.0,0.11,-0.64,10.03
3821.0,0.16,-0.62,10.08
3834.0,0.22,-0.56,10.09
3847.0,0.21,-0.54,10.0
3859.0,0.18,-0.52,9.97
3872.0,0.22,-0.51,9.97
3885.0,0.29,-0.52,10.0
3898.0,0.35,-0.54,10.02
3911.0,0.33,-0.57,10.04
3924.0,0.26,-0.62,10.01
3937.0,0.25,-0.66,10.02
3949.0,0.23,-0.66,10.09
3962.0,0.25,-0.62,10.13
3975.0,0.28,-0.51,10.06
3988.0,0.28,-0.51,10.04
4001.0,0.17,-0.54,9.89
4014.0,0.1,-0.56,9.72
4027.0,0.08,-0.6,9.77
4039.0,0.08,-0.64,10.12
4052.0,0.12,-0.59,10.36
4065.0,0.13,-0.49,10.36
4078.0,0.04,-0.39,10.19
4091.0,-0.14,-0.37,9.93
4104.0,-0.2,-0.44,9.76
4117.0,-0.12,-0.56,9.77
4130.0,-0.02,-0.65,9.9
4142.0,0.12,-0.69,10.14
4155.0,0.21,-0.69,10.25
4168.0,0.28,-0.66,10.25
4181.0,0.3,-0.55,10.11
4194.0,0.25,-0.5,9.94
4207.0,0.19,-0.47,9.89
4220.0,0.15,-0.51,9.89
4232.0,0.14,-0.61,9.98
4245.0,0.11,-0.62,10.12
4258.0,0.16,-0.61,10.15
4271.0,0.19,-0.6,10.09
4284.0,0.15,-0.57,9.97
4297.0,0.14,-0.54,9.98
4310.0,0.17,-0.58,10.03
4322.0,0.23,-0.6,10.05
4335.0,0.25,-0.63,10.06
4348.0,0.26,-0.67,10.06
4361.0,0.29,-0.68,10.02
4374.0,0.31,-0.7,9.98
4387.0,0.31,-0.67,10.05
4400.0,0.34,-0.7,10.1
4412.0,0.36,-0.68,10.18
4425.0,0.38,-0.69,10.15
4438.0,0.38,-0.66,10.16
4451.0,0.34,-0.66,10.08
4464.0,0.34,-0.63,10.07
4477.0,0.33,-0.67,10.07
4490.0,0.28,-0.7,10.07
4502.0,0.26,-0.68,10.13
4515.0,0.31,-0.64,10.13
4528.0,0.34,-0.6,10.01
4541.0,0.29,-0.58,9.98
4554.0,0.25,-0.59,10.03
4567.0,0.24,-0.59,10.04
4580.0,0.24,-0.58,10.07
4592.0,0.25,-0.57,10.05
4605.0,0.24,-0.58,10.02
4618.0,0.3,-0.56,10.01
4631.0,0.33,-0.55,9.99
4644.0,0.33,-0.55,10.04
4657.0,0.3,-0.59,10.03
4670.0,0.31,-0.63,10.08
4682.0,0.28,-0.64,10.08
4695.0,0.29,-0.65,10.09
4708.0,0.27,-0.59,10.1
4721.0,0.29,-0.53,10.12
4734.0,0.26,-0.51,10.01
4747.0,0.25,-0.51,9.96
4760.0,0.17,-0.55,9.94
4772.0,0.12,-0.59,9.96
4785.0,0.12,-0.61,10.03
4798.0,0.11,-0.63,10.06
4811.0,0.13,-0.61,10.08
4824.0,0.13,-0.58,10.04
4837.0,0.15,-0.59,9.98
4850.0,0.17,-0.55,9.99
4862.0,0.21,-0.58,10.04
4875.0,0.21,-0.58,10.04
4888.0,0.17,-0.57,10.04
4901.0,0.22,-0.54,10.04
4914.0,0.18,-0.55,10.06
4927.0,0.14,-0.56,10.07
4940.0,0.12,-0.59,10.06
4952.0,0.08,-0.58,10.02
4965.0,0.13,-0.56,10.09
4978.0,0.2,-0.54,10.1
4991.0,0.22,-0.53,10.15
5004.0,0.2,-0.51,10.16
5017.0,0.16,-0.5,10.16
5030.0,0.09,-0.52,10.1
5042.0,0.1,-0.52,9.98
5055.0,0.09,-0.5,9.85
5068.0,0.12,-0.48,9.76
5081.0,0.22,-0.49,9.83
5094.0,0.25,-0.53,9.94
5107.0,0.3,-0.54,9.98
5120.0,0.31,-0.58,10.0
5132.0,0.35,-0.59,10.09
5145.0,0.39,-0.63,10.19
5158.0,0.42,-0.69,10.2
5171.0,0.37,-0.65,10.19
5184.0,0.34,-0.62,10.21
5197.0,0.28,-0.62,10.12
5210.0,0.24,-0.59,10.06
5222.0,0.22,-0.53,10.02
5235.0,0.24,-0.53,10.01
5248.0,0.2,-0.5,10.01
5261.0,0.19,-0.5,9.97
5274.0,0.18,-0.53,10.0
5287.0,0.23,-0.55,10.05
5300.0,0.28,-0.5,10.08
5312.0,0.27,-0.49,10.13
5325.0,0.24,-0.49,10.1
5338.0,0.14,-0.5,10.0
5351.0,0.09,-0.5,9.95
5364.0,0.12,-0.53,9.96
5377.0,0.21,-0.53,10.06
5390.0,0.23,-0.54,10.06
5402.0,0.27,-0.52,10.11
5415.0,0.32,-0.49,10.1
5428.0,0.37,-0.45,10.09
5441.0,0.31,-0.42,10.03
5454.0,0.23,-0.43,9.95
5467.0,0.15,-0.47,9.93
5480.0,0.14,-0.49,10.0
5492.0,0.16,-0.49,10.03
5505.0,0.15,-0.5,10.06
5518.0,0.11,-0.53,10.04
5531.0,0.14,-0.51,10.09
5544.0,0.23,-0.5,10.12
5557.0,0.21,-0.5,10.1
5570.0,0.12,-0.53,10.05
5582.0,0.05,-0.56,10.02
5595.0,0.07,-0.52,9.99
5608.0,0.12,-0.5,10.0
5621.0,0.17,-0.47,10.03
5634.0,0.18,-0.47,10.03
5647.0,0.12,-0.47,10.01
5660.0,0.05,-0.51,10.02
5672.0,0.03,-0.53,10.02
5685.0,0.07,-0.55,10.08
5698.0,0.09,-0.54,10.06
5711.0,0.05,-0.54,10.07
5724.0,0.1,-0.56,10.12
5737.0,0.14,-0.49,10.08
5750.0,0.14,-0.43,10.0
5762.0,0.17,-0.4,9.96
5775.0,0.24,-0.41,10.0
5788.0,0.3,-0.44,10.0
5801.0,0.27,-0.51,9.93
5814.0,0.22,-0.55,9.91
5827.0,0.23,-0.6,9.99
5840.0,0.28,-0.6,10.08
5853.0,0.3,-0.64,10.13
5865.0,0.29,-0.65,10.14
5878.0,0.31,-0.65,10.16
5891.0,0.31,-0.62,10.15
5904.0,0.32,-0.61,10.12
5917.0,0.29,-0.57,10.09
5930.0,0.25,-0.58,10.03
5943.0,0.21,-0.58,10.01
5955.0,0.18,-0.57,9.96
5968.0,0.16,-0.56,9.96
5981.0,0.14,-0.54,10.02
5994.0,0.15,-0.57,10.08
6007.0,0.2,-0.57,10.17
6020.0,0.26,-0.57,10.15
6033.0,0.31,-0.54,10.14
6045.0,0.25,-0.53,10.03
6058.0,0.21,-0.53,9.96
6071.0,0.19,-0.55,9.97
6084.0,0.18,-0.58,9.99
6097.0,0.14,-0.58,10.04
6110.0,0.16,-0.55,10.08
6123.0,0.24,-0.51,10.13
6135.0,0.27,-0.47,10.07
6148.0,0.25,-0.43,10.02
6161.0,0.23,-0.4,10.0
6174.0,0.22,-0.36,10.02
6187.0,0.18,-0.4,10.01
6200.0,0.12,-0.47,9.96
6213.0,0.07,-0.52,9.99
6225.0,0.07,-0.59,10.03
6238.0,0.12,-0.6,10.11
6251.0,0.21,-0.57,10.14
6264.0,0.25,-0.5,10.11
6277.0,0.26,-0.44,10.03
6290.0,0.2,-0.43,9.94
6303.0,0.13,-0.45,9.91
6315.0,0.06,-0.51,9.97
6328.0,0.06,-0.56,10.01
6341.0,0.1,-0.55,10.06
6354.0,0.12,-0.51,10.05
6367.0,0.16,-0.46,10.02
6380.0,0.22,-0.42,10.03
6393.0,0.27,-0.43,10.06
6405.0,0.33,-0.43,10.03
6418.0,0.31,-0.43,9.98
6431.0,0.17,-0.48,9.98
6444.0,0.08,-0.56,9.99
6457.0,0.07,-0.62,9.99
6470.0,0.01,-0.68,10.03
6483.0,0.06,-0.64,10.13
6495.0,0.19,-0.62,10.09
6508.0,0.24,-0.61,10.08
6521.0,0.29,-0.6,10.08
6534.0,0.29,-0.61,10.11
6547.0,0.25,-0.67,10.08
6560.0,0.14,-0.73,10.03
6573.0,0.15,-0.72,10.09
6585.0,0.25,-0.68,10.21
6598.0,0.32,-0.65,10.19
6611.0,0.3,-0.6,10.1
6624.0,0.28,-0.57,10.03
6637.0,0.19,-0.58,9.97
6650.0,0.15,-0.61,10.0
6663.0,0.18,-0.6,10.06
6675.0,0.2,-0.6,10.09
6688.0,0.18,-0.6,10.1
6701.0,0.2,-0.59,10.04
6714.0,0.22,-0.57,10.0
6727.0,0.22,-0.55,10.0
6740.0,0.2,-0.54,10.07
6753.0,0.2,-0.5,10.06
6765.0,0.25,-0.47,10.14
6778.0,0.23,-0.47,10.05
6791.0,0.16,-0.49,9.96
6804.0,0.12,-0.5,9.98
6817.0,0.11,-0.55,9.99
6830.0,0.14,-0.56,10.07
6843.0,0.17,-0.56,10.09
6855.0,0.15,-0.53,10.1
6868.0,0.12,-0.49,10.08
6881.0,0.14,-0.44,10.05
6894.0,0.1,-0.41,9.96
6907.0,0.04,-0.4,9.84
6920.0,-0.03,-0.42,9.84
6933.0,0.01,-0.48,9.97
6945.0,0.06,-0.54,10.07
6958.0,0.13,-0.57,10.1
6971.0,0.14,-0.56,10.07
6984.0,0.17,-0.53,10.05
6997.0,0.2,-0.49,10.01
7010.0,0.16,-0.48,10.0
7023.0,0.17,-0.5,10.03
7035.0,0.14,-0.54,9.98
7048.0,0.12,-0.57,9.98
7061.0,0.14,-0.55,10.05
7074.0,0.23,-0.52,10.1
7087.0,0.25,-0.52,10.05
7100.0,0.17,-0.53,9.98
7113.0,0.12,-0.55,9.97
7125.0,0.14,-0.61,10.05
7138.0,0.18,-0.63,10.14
7151.0,0.26,-0.64,10.16
7164.0,0.27,-0.61,10.13
7177.0,0.22,-0.61,10.07
7190.0,0.23,-0.6,10.05
7203.0,0.25,-0.62,10.07
7215.0,0.27,-0.63,10.12
7228.0,0.27,-0.65,10.13
7241.0,0.23,-0.63,10.09
7254.0,0.19,-0.63,10.1
7267.0,0.21,-0.6,10.05
7280.0,0.22,-0.6,10.0
7293.0,0.23,-0.57,10.02
7305.0,0.2,-0.57,10.03
7318.0,0.23,-0.57,10.07
7331.0,0.25,-0.54,10.09
7344.0,0.25,-0.57,10.04
7357.0,0.17,-0.59,10.02
7370.0,0.11,-0.58,10.03
7383.0,0.16,-0.57,10.05
7395.0,0.22,-0.52,10.08
7408.0,0.2,-0.48,10.08
7421.0,0.18,-0.42,10.01
7434.0,0.13,-0.42,9.96
7447.0,0.04,-0.46,9.95
7460.0,0.02,-0.5,9.96
7473.0,0.03,-0.53,10.07
7485.0,0.07,-0.53,10.08
7498.0,0.04,-0.5,10.04
7511.0,0.06,-0.48,9.98
7524.0,0.08,-0.47,9.95
7537.0,0.14,-0.45,9.98
7550.0,0.2,-0.49,10.02
7563.0,0.17,-0.49,10.03
7575.0,0.12,-0.48,10.06
7588.0,0.16,-0.51,10.04
7601.0,0.17,-0.51,10.0
7614.0,0.18,-0.55,9.96
7627.0,0.2,-0.59,9.97
7640.0,0.24,-0.59,10.06
7653.0,0.31,-0.6,10.15
7665.0,0.33,-0.62,10.14
7678.0,0.31,-0.63,10.11
7691.0,0.28,-0.63,10.11
7704.0,0.26,-0.62,10.08
7717.0,0.23,-0.64,10.1
7730.0,0.2,-0.64,10.06
7743.0,0.22,-0.67,10.07
7755.0,0.27,-0.65,10.08
7768.0,0.32,-0.65,10.1
7781.0,0.34,-0.62,10.11
7794.0,0.35,-0.61,10.07
7807.0,0.29,-0.59,10.05
7820.0,0.24,-0.56,10.02
7833.0,0.2,-0.55,10.03
7845.0,0.23,-0.55,10.04
7858.0,0.23,-0.56,10.05
7871.0,0.21,-0.56,10.06
7884.0,0.17,-0.55,10.03
7897.0,0.13,-0.53,9.98
7910.0,0.16,-0.51,10.05
7923.0,0.24,-0.46,9.96
7935.0,0.24,-0.4,9.98
7948.0,0.2,-0.39,10.01
7961.0,0.11,-0.44,9.99
7974.0,0.03,-0.48,10.03
7987.0,-0.04,-0.54,10.05
8000.0,-0.03,-0.55,10.07
8013.0,0.01,-0.49,10.06
8025.0,0.05,-0.46,9.97
8038.0,0.07,-0.43,9.86
8051.0,0.13,-0.42,9.91
8064.0,0.21,-0.44,10.05
8077.0,0.2,-0.49,10.09
8090.0,0.17,-0.51,10.08
8103.0,0.11,-0.53,10.03
8115.0,0.15,-0.55,10.05
8128.0,0.21,-0.57,10.0
8141.0,0.24,-0.6,10.03
8154.0,0.29,-0.63,10.04
8167.0,0.32,-0.64,10.11
8180.0,0.37,-0.63,10.15
8193.0,0.35,-0.65,10.14
8205.0,0.33,-0.65,10.13
8218.0,0.34,-0.65,10.18
8231.0,0.33,-0.68,10.18
8244.0,0.25,-0.69,10.14
8257.0,0.17,-0.66,10.04
8270.0,0.14,-0.63,9.96
8283.0,0.19,-0.57,10.04
8295.0,0.24,-0.52,10.11
8308.0,0.27,-0.51,10.09
8321.0,0.23,-0.49,10.02
8334.0,0.17,-0.49,9.99
8347.0,0.17,-0.53,9.99
8360.0,0.16,-0.58,9.99
8373.0,0.12,-0.62,10.01
8385.0,0.14,-0.64,10.07
8398.0,0.21,-0.6,10.14
8411.0,0.26,-0.54,10.13
8424.0,0.25,-0.5,10.09
8437.0,0.22,-0.47,10.02
8450.0,0.21,-0.42,9.99
8463.0,0.17,-0.42,9.99
8475.0,0.15,-0.43,10.02
8488.0,0.1,-0.45,10.02
8501.0,0.04,-0.47,10.01
8514.0,0.08,-0.49,10.02
8527.0,0.1,-0.54,10.03
8540.0,0.11,-0.56,10.0
8553.0,0.17,-0.53,10.01
8565.0,0.21,-0.49,10.07
8578.0,0.2,-0.49,10.04
8591.0,0.15,-0.49,10.02
8604.0,0.14,-0.48,9.99
8617.0,0.13,-0.47,10.0
8630.0,0.16,-0.5,10.0
8643.0,0.17,-0.5,10.01
8655.0,0.17,-0.52,10.08
8668.0,0.18,-0.54,10.07
8681.0,0.17,-0.54,10.03
8694.0,0.21,-0.47,10.02
8707.0,0.23,-0.45,9.99
8720.0,0.22,-0.46,9.98
8733.0,0.23,-0.49,10.03
8745.0,0.21,-0.56,10.05
8758.0,0.17,-0.61,10.04
8771.0,0.18,-0.63,10.04
8784.0,0.19,-0.65,10.08
8797.0,0.24,-0.64,10.13
8810.0,0.28,-0.61,10.18
8823.0,0.33,-0.58,10.11
8836.0,0.31,-0.58,10.03
8848.0,0.26,-0.57,10.01
8861.0,0.23,-0.58,10.04
8874.0,0.23,-0.62,10.1
8887.0,0.22,-0.65,10.11
8900.0,0.24,-0.61,10.13
8913.0,0.26,-0.55,10.12
8926.0,0.25,-0.54,10.04
8938.0,0.19,-0.53,9.97
8951.0,0.12,-0.52,9.94
8964.0,0.11,-0.51,9.97
8977.0,0.19,-0.52,10.1
8990.0,0.25,-0.51,10.14
9003.0,0.26,-0.51,10.11
9016.0,0.25,-0.46,10.04
9028.0,0.24,-0.45,10.01
9041.0,0.22,-0.48,10.0
9054.0,0.14,-0.49,10.0
9067.0,0.13,-0.5,10.07
9080.0,0.12,-0.47,10.05
9093.0,0.11,-0.46,10.0
9106.0,0.1,-0.46,9.95
9118.0,0.11,-0.46,9.97
9131.0,0.14,-0.46,10.0
9144.0,0.17,-0.46,10.05
9157.0,0.19,-0.49,10.06
9170.0,0.2,-0.51,10.09
9183.0,0.19,-0.49,10.05
9196.0,0.17,-0.48,10.03
9208.0,0.13,-0.49,9.98
9221.0,0.12,-0.51,9.94
9234.0,0.12,-0.52,9.96
9247.0,0.18,-0.52,10.03
9260.0,0.25,-0.52,10.09
9273.0,0.32,-0.58,10.16
9286.0,0.32,-0.66,10.13
9298.0,0.28,-0.73,10.1
9311.0,0.28,-0.75,10.11
9324.0,0.32,-0.7,10.22
9337.0,0.34,-0.61,10.2
9350.0,0.31,-0.56,10.13
9363.0,0.29,-0.55,10.05
9376.0,0.26,-0.57,10.0
9388.0,0.23,-0.57,9.98
9401.0,0.23,-0.56,10.02
9414.0,0.21,-0.57,10.06
9427.0,0.21,-0.57,10.06
9440.0,0.2,-0.53,10.04
9453.0,0.18,-0.52,10.02
9466.0,0.2,-0.51,10.01
9478.0,0.21,-0.48,10.05
9491.0,0.21,-0.48,10.02
9504.0,0.16,-0.52,10.03
9517.0,0.15,-0.52,9.99
9530.0,0.14,-0.48,10.0
9543.0,0.15,-0.48,10.03
9556.0,0.19,-0.51,10.08
9568.0,0.22,-0.47,10.08
9581.0,0.2,-0.46,10.05
9594.0,0.17,-0.45,10.01
9607.0,0.15,-0.46,10.03
9620.0,0.15,-0.48,9.95
9633.0,0.11,-0.5,9.98
9646.0,0.07,-0.53,10.02
9658.0,0.13,-0.52,10.06
9671.0,0.21,-0.51,10.14
9684.0,0.24,-0.48,10.12
9697.0,0.25,-0.48,10.08
9710.0,0.23,-0.46,10.02
9723.0,0.2,-0.49,9.99
9736.0,0.14,-0.54,9.96
9748.0,0.1,-0.57,9.99
9761.0,0.14,-0.55,10.06
9774.0,0.21,-0.54,10.11
9787.0,0.26,-0.51,10.11
9800.0,0.25,-0.49,10.01
9813.0,0.18,-0.52,9.9
9826.0,0.15,-0.53,9.92
9838.0,0.15,-0.58,9.99
9851.0,0.21,-0.63,10.1
9864.0,0.23,-0.68,10.14
9877.0,0.27,-0.69,10.17
9890.0,0.32,-0.66,10.17
9903.0,0.35,-0.6,10.14
9916.0,0.35,-0.56,10.09
9928.0,0.34,-0.55,10.04
9941.0,0.24,-0.57,10.04
9954.0,0.16,-0.6,10.07
9967.0,0.12,-0.58,10.04
9980.0,0.16,-0.55,10.02
9993.0,0.19,-0.52,9.98
10006.0,0.24,-0.51,10.02
10018.0,0.28,-0.53,10.03
10031.0,0.24,-0.53,10.04
10044.0,0.21,-0.54,10.04
10057.0,0.18,-0.55,10.04
10070.0,0.23,-0.54,10.08
10083.0,0.21,-0.54,10.07
10096.0,0.18,-0.5,10.02
10108.0,0.16,-0.49,10.01
10121.0,0.18,-0.49,10.01
10134.0,0.23,-0.43,10.06
10147.0,0.23,-0.43,10.06
10160.0,0.17,-0.44,10.01
10173.0,0.1,-0.48,9.99
10186.0,0.09,-0.51,10.02
10198.0,0.08,-0.48,10.02
10211.0,0.08,-0.48,9.99
10224.0,0.14,-0.49,10.01
10237.0,0.2,-0.5,10.05
10250.0,0.21,-0.51,10.06
10263.0,0.21,-0.48,10.05
10276.0,0.23,-0.49,10.05
10288.0,0.23,-0.53,10.03
10301.0,0.2,-0.57,10.02
10314.0,0.18,-0.57,10.01
10327.0,0.19,-0.58,10.04
10340.0,0.2,-0.59,10.05
10353.0,0.21,-0.6,10.06
10366.0,0.24,-0.61,10.1
10378.0,0.27,-0.59,10.08
10391.0,0.28,-0.58,10.1
10404.0,0.29,-0.55,10.07
10417.0,0.26,-0.56,10.01
10430.0,0.22,-0.56,10.03
10443.0,0.24,-0.59,10.09
10456.0,0.28,-0.59,10.13
10468.0,0.24,-0.58,10.12
10481.0,0.19,-0.58,10.07
10494.0,0.2,-0.52,10.05
10507.0,0.21,-0.51,10.04
10520.0,0.2,-0.51,9.96
10533.0,0.18,-0.5,9.98
10546.0,0.14,-0.52,10.0
10558.0,0.15,-0.54,10.04
10571.0,0.16,-0.51,10.08
10584.0,0.17,-0.54,10.08
10597.0,0.18,-0.51,10.04
10610.0,0.19,-0.49,10.01
10623.0,0.21,-0.46,10.01
10636.0,0.18,-0.47,10.0
10648.0,0.12,-0.51,9.97
10661.0,0.07,-0.53,10.02
10674.0,0.08,-0.52,10.06
10687.0,0.14,-0.53,10.09
10700.0,0.16,-0.49,10.04
10713.0,0.21,-0.48,10.06
10726.0,0.2,-0.47,10.03
10738.0,0.19,-0.46,10.04
10751.0,0.17,-0.45,10.05
10764.0,0.14,-0.46,10.0
10777.0,0.11,-0.47,10.02
10790.0,0.1,-0.51,10.01
10803.0,0.12,-0.54,10.01
10816.0,0.16,-0.57,10.0
10828.0,0.21,-0.57,10.16
10841.0,0.25,-0.6,10.11
10854.0,0.28,-0.61,10.08
10867.0,0.3,-0.63,10.08
10880.0,0.31,-0.64,10.07
10893.0,0.3,-0.61,10.11
10906.0,0.3,-0.63,10.13
10918.0,0.27,-0.6,10.12
10931.0,0.25,-0.58,10.09
10944.0,0.25,-0.58,10.06
10957.0,0.27,-0.56,10.06
10970.0,0.25,-0.56,10.09
10983.0,0.22,-0.56,10.04
10996.0,0.18,-0.54,10.03
11008.0,0.2,-0.54,10.05
11021.0,0.2,-0.51,10.05
11034.0,0.21,-0.5,10.05
11047.0,0.21,-0.53,10.06
11060.0,0.14,-0.51,10.05
11073.0,0.11,-0.54,10.02
11086.0,0.12,-0.44,9.92
11098.0,0.17,-0.48,10.0
11111.0,0.09,-0.5,10.01
11124.0,0.05,-0.59,10.04
11137.0,0.05,-0.56,9.97
11150.0,0.13,-0.51,10.02
11163.0,0.21,-0.43,10.12
11176.0,0.26,-0.4,10.08
11188.0,0.17,-0.39,9.93
11201.0,0.06,-0.41,9.89
11214.0,0.06,-0.45,9.96
11227.0,0.11,-0.52,10.07
11240.0,0.14,-0.53,10.1
11253.0,0.16,-0.54,10.1
11266.0,0.17,-0.49,10.1
11278.0,0.17,-0.49,10.0
11291.0,0.16,-0.48,9.95
11304.0,0.15,-0.49,9.98
11317.0,0.17,-0.51,10.02
11330.0,0.2,-0.58,10.05
11343.0,0.23,-0.61,10.13
11356.0,0.28,-0.59,10.15
11368.0,0.28,-0.57,10.09
11381.0,0.27,-0.56,10.04
11394.0,0.22,-0.58,9.99
11407.0,0.24,-0.63,10.01
11420.0,0.34,-0.65,10.1
11433.0,0.37,-0.64,10.19
11446.0,0.26,-0.65,10.12
11458.0,0.16,-0.62,10.1
11471.0,0.12,-0.58,10.08
11484.0,0.17,-0.55,10.08
11497.0,0.23,-0.49,10.05
11510.0,0.21,-0.49,10.06
11523.0,0.2,-0.5,9.98
11536.0,0.13,-0.49,9.98
11548.0,0.11,-0.52,10.05
11561.0,0.11,-0.55,10.05
11574.0,0.1,-0.56,10.1
11587.0,0.12,-0.55,10.06
11600.0,0.13,-0.52,9.98
11613.0,0.14,-0.47,9.97
11626.0,0.2,-0.47,9.98
11638.0,0.23,-0.48,10.0
11651.0,0.28,-0.47,10.11
11664.0,0.28,-0.51,10.11
11677.0,0.22,-0.5,10.1
11690.0,0.14,-0.52,10.07
11703.0,0.05,-0.51,10.0
11716.0,0.02,-0.51,9.94
11728.0,0.06,-0.49,9.97
11741.0,0.14,-0.45,10.05
11754.0,0.19,-0.46,10.03
11767.0,0.18,-0.51,10.05
11780.0,0.16,-0.53,10.05
11793.0,0.17,-0.55,10.05
11806.0,0.18,-0.52,10.07
11818.0,0.21,-0.53,10.07
11831.0,0.2,-0.48,10.03
11844.0,0.14,-0.45,10.0
11857.0,0.1,-0.46,9.98
11870.0,0.11,-0.5,9.97
11883.0,0.16,-0.54,10.02
11896.0,0.23,-0.54,10.07
11908.0,0.27,-0.58,10.09
11921.0,0.23,-0.62,10.1
11934.0,0.22,-0.68,10.09
11947.0,0.2,-0.74,10.13
11960.0,0.23,-0.71,10.17
11973.0,0.3,-0.62,10.21
11986.0,0.27,-0.57,10.09
11998.0,0.22,-0.58,9.98
12011.0,0.15,-0.67,9.94
12024.0,0.09,-0.69,9.98
12037.0,0.1,-0.68,10.1
12050.0,0.17,-0.55,10.18
12063.0,0.21,-0.41,10.14
12076.0,0.33,-0.43,10.12
12088.0,0.27,-0.5,10.04
12101.0,0.23,-0.47,9.91
12114.0,0.2,-0.48,9.92
12127.0,0.2,-0.56,10.06
12140.0,0.19,-0.61,10.11
12153.0,0.17,-0.57,10.09
12166.0,0.15,-0.5,10.06
12178.0,0.17,-0.4,10.02
12191.0,0.2,-0.35,9.92
12204.0,0.16,-0.36,9.9
12217.0,0.15,-0.42,9.95
12230.0,0.12,-0.47,10.07
12243.0,0.11,-0.53,10.12
12256.0,0.1,-0.58,10.09
12268.0,0.14,-0.54,10.06
12281.0,0.2,-0.46,10.04
12294.0,0.22,-0.43,9.97
12307.0,0.17,-0.4,9.99
12320.0,0.14,-0.46,10.04
12333.0,0.14,-0.53,10.09
12346.0,0.12,-0.56,10.06
12358.0,0.12,-0.57,10.01
12371.0,0.15,-0.56,10.05
12384.0,0.24,-0.54,10.08
12397.0,0.26,-0.53,10.11
12410.0,0.25,-0.57,10.08
12423.0,0.22,-0.61,10.03
12436.0,0.19,-0.58,10.07
12448.0,0.17,-0.57,10.08
12461.0,0.17,-0.59,10.03
12474.0,0.13,-0.59,9.99
12487.0,0.17,-0.56,10.04
12500.0,0.22,-0.56,10.05
12513.0,0.27,-0.59,10.08
12526.0,0.26,-0.57,10.1
12538.0,0.26,-0.57,10.11
12551.0,0.23,-0.54,10.1
12564.0,0.17,-0.53,10.04
12577.0,0.12,-0.53,10.0
12590.0,0.11,-0.54,9.94
12603.0,0.13,-0.55,10.02
12616.0,0.19,-0.52,10.05
12628.0,0.24,-0.49,10.09
12641.0,0.27,-0.45,10.14
12654.0,0.22,-0.45,10.05
12667.0,0.13,-0.49,9.93
12680.0,0.07,-0.51,9.91
12693.0,0.06,-0.54,9.96
12706.0,0.11,-0.54,10.02
12718.0,0.2,-0.51,10.11
12731.0,0.22,-0.5,10.12
12744.0,0.2,-0.51,10.04
12757.0,0.17,-0.47,9.93
12770.0,0.09,-0.43,9.9
12783.0,0.12,-0.47,9.96
12796.0,0.18,-0.5,10.06
12808.0,0.17,-0.53,10.06
12821.0,0.12,-0.53,10.04
12834.0,0.13,-0.56,10.06
12847.0,0.23,-0.58,10.09
