timestamp,accX,accY,accZ
2.0,0.52,-0.78,10.0
15.0,0.38,-0.66,8.11
28.0,0.52,-0.76,9.74
41.0,0.65,-0.74,10.11
54.0,0.71,-0.73,10.11
66.0,0.64,-0.72,10.01
79.0,0.59,-0.7,9.97
92.0,0.62,-0.71,9.97
105.0,0.65,-0.71,10.05
118.0,0.65,-0.74,10.06
131.0,0.59,-0.76,10.06
144.0,0.54,-0.76,10.02
157.0,0.58,-0.72,10.04
169.0,0.64,-0.68,10.08
182.0,0.68,-0.69,10.05
195.0,0.61,-0.68,10.01
208.0,0.55,-0.7,9.97
221.0,0.49,-0.72,9.94
234.0,0.47,-0.73,10.01
247.0,0.51,-0.75,10.05
259.0,0.56,-0.73,10.05
272.0,0.63,-0.68,10.11
285.0,0.73,-0.64,10.12
298.0,0.72,-0.61,9.94
311.0,0.62,-0.62,9.84
324.0,0.55,-0.69,9.92
337.0,0.42,-0.77,9.86
349.0,0.37,-0.77,9.87
362.0,0.57,-0.7,9.99
375.0,0.94,-0.63,10.07
388.0,1.07,-0.62,10.15
401.0,1.05,-0.63,10.05
414.0,1.12,-0.68,10.08
427.0,1.09,-0.73,10.15
439.0,1.11,-0.8,10.15
452.0,0.92,-0.75,10.16
465.0,0.97,-0.73,10.1
478.0,0.96,-0.73,9.99
491.0,0.98,-0.69,10.04
504.0,1.14,-0.65,10.14
517.0,1.19,-0.63,10.07
529.0,1.01,-0.67,9.99
542.0,0.79,-0.78,9.9
555.0,0.83,-0.82,10.09
568.0,0.69,-0.86,10.15
581.0,0.64,-0.87,10.14
594.0,0.63,-0.88,10.1
607.0,0.56,-0.86,10.1
619.0,0.54,-0.84,10.07
632.0,0.52,-0.8,9.99
645.0,0.54,-0.73,9.99
658.0,0.57,-0.65,9.91
671.0,0.62,-0.58,9.9
684.0,0.63,-0.6,9.95
697.0,0.61,-0.69,10.03
709.0,0.51,-0.82,10.13
722.0,0.42,-0.92,10.06
735.0,0.35,-0.99,10.08
748.0,0.4,-0.98,10.16
761.0,0.48,-0.86,10.26
774.0,0.57,-0.72,10.16
787.0,0.57,-0.62,10.0
799.0,0.42,-0.59,9.84
812.0,0.26,-0.73,9.78
825.0,0.03,-0.87,9.81
838.0,0.03,-0.94,9.92
851.0,0.23,-0.94,10.13
864.0,0.39,-0.85,10.15
877.0,0.41,-0.74,10.04
889.0,0.4,-0.62,9.98
902.0,0.41,-0.63,9.92
915.0,0.31,-0.72,9.84
928.0,0.22,-0.84,9.9
941.0,0.11,-0.96,9.98
954.0,0.1,-0.97,10.03
967.0,0.34,-0.82,10.15
979.0,0.58,-0.62,10.17
992.0,0.66,-0.53,10.05
1005.0,0.55,-0.55,9.86
1018.0,0.34,-0.68,9.8
1031.0,0.2,-0.88,9.88
1044.0,0.23,-1.0,10.13
1057.0,0.43,-0.96,10.26
1069.0,0.58,-0.81,10.24
1082.0,0.66,-0.67,10.25
1095.0,0.83,-0.55,10.16
1108.0,0.78,-0.54,9.98
1121.0,0.6,-0.6,9.84
1134.0,0.48,-0.75,9.88
1147.0,0.43,-0.83,10.08
1159.0,0.48,-0.89,10.22
1172.0,0.52,-0.85,10.22
1185.0,0.52,-0.78,10.15
1198.0,0.54,-0.68,10.05
1211.0,0.6,-0.62,9.98
1224.0,0.62,-0.59,9.97
1237.0,0.58,-0.67,9.99
1249.0,0.51,-0.76,10.05
1262.0,0.46,-0.8,10.07
1275.0,0.5,-0.83,10.1
1288.0,0.52,-0.77,10.06
1301.0,0.5,-0.72,10.01
1314.0,0.54,-0.66,10.06
1327.0,0.59,-0.62,9.99
1339.0,0.55,-0.64,9.98
1352.0,0.49,-0.66,9.97
1365.0,0.45,-0.73,10.01
1378.0,0.48,-0.76,10.12
1391.0,0.51,-0.76,10.14
1404.0,0.49,-0.74,10.06
1417.0,0.47,-0.72,10.02
1429.0,0.5,-0.68,10.0
1442.0,0.57,-0.68,10.03
1455.0,0.57,-0.7,10.01
1468.0,0.54,-0.71,10.08
1481.0,0.55,-0.75,10.1
1494.0,0.48,-0.75,10.03
1507.0,0.44,-0.75,9.99
1519.0,0.47,-0.76,9.98
1532.0,0.52,-0.73,10.02
1545.0,0.61,-0.67,10.09
1558.0,0.61,-0.65,10.12
1571.0,0.56,-0.66,10.05
1584.0,0.5,-0.69,10.02
1597.0,0.48,-0.71,9.99
1609.0,0.49,-0.73,10.02
1622.0,0.5,-0.73,10.05
1635.0,0.54,-0.73,10.04
1648.0,0.55,-0.71,10.07
1661.0,0.52,-0.71,10.04
1674.0,0.51,-0.73,10.03
1687.0,0.47,-0.72,10.0
1699.0,0.47,-0.73,9.98
1712.0,0.56,-0.71,10.08
1725.0,0.63,-0.69,10.09
1738.0,0.59,-0.7,10.03
1751.0,0.51,-0.74,10.03
1764.0,0.48,-0.74,10.0
1777.0,0.48,-0.75,10.04
1789.0,0.49,-0.73,10.01
1802.0,0.52,-0.72,10.01
1815.0,0.6,-0.68,10.12
1828.0,0.68,-0.69,10.1
1841.0,0.61,-0.7,10.07
1854.0,0.53,-0.74,10.07
1867.0,0.48,-0.74,10.06
1879.0,0.49,-0.71,10.06
1892.0,0.46,-0.7,9.95
1905.0,0.42,-0.68,9.96
1918.0,0.48,-0.67,9.98
1931.0,0.54,-0.66,10.04
1944.0,0.59,-0.68,10.1
1957.0,0.58,-0.69,10.05
1969.0,0.51,-0.72,10.01
1982.0,0.48,-0.74,10.04
1995.0,0.49,-0.77,10.06
2008.0,0.53,-0.75,10.06
2021.0,0.55,-0.72,10.06
2034.0,0.57,-0.69,10.0
2047.0,0.56,-0.68,10.04
2059.0,0.53,-0.68,10.01
2072.0,0.52,-0.69,10.05
2085.0,0.53,-0.71,10.04
2098.0,0.5,-0.71,10.0
2111.0,0.5,-0.7,10.01
2124.0,0.51,-0.69,10.02
2137.0,0.54,-0.7,10.06
2149.0,0.56,-0.72,10.04
2162.0,0.55,-0.7,10.04
2175.0,0.54,-0.7,10.03
2188.0,0.5,-0.7,9.99
2201.0,0.51,-0.69,9.96
2214.0,0.52,-0.68,9.97
2227.0,0.53,-0.71,10.03
2239.0,0.54,-0.75,10.1
2252.0,0.53,-0.74,10.13
2265.0,0.54,-0.7,10.13
2278.0,0.54,-0.7,10.04
2291.0,0.52,-0.68,10.01
2304.0,0.53,-0.69,9.99
2317.0,0.52,-0.71,10.01
2329.0,0.52,-0.73,10.07
2342.0,0.55,-0.73,10.1
2355.0,0.58,-0.71,10.11
2368.0,0.57,-0.7,10.06
2381.0,0.5,-0.7,9.98
2394.0,0.5,-0.68,9.99
2407.0,0.49,-0.69,10.02
2419.0,0.51,-0.71,10.05
2432.0,0.51,-0.71,10.05
2445.0,0.5,-0.75,10.05
2458.0,0.54,-0.72,10.09
2471.0,0.59,-0.7,10.08
2484.0,0.56,-0.69,10.06
2497.0,0.54,-0.68,10.01
2509.0,0.5,-0.68,9.97
2522.0,0.47,-0.68,9.98
2535.0,0.5,-0.71,10.03
2548.0,0.52,-0.75,10.08
2561.0,0.57,-0.77,10.14
2574.0,0.57,-0.77,10.11
2587.0,0.61,-0.74,10.07
2599.0,0.57,-0.72,10.01
2612.0,0.52,-0.69,10.01
2625.0,0.55,-0.7,10.04
2638.0,0.48,-0.7,10.01
2651.0,0.49,-0.73,10.04
2664.0,0.5,-0.72,10.04
2677.0,0.49,-0.7,10.01
2689.0,0.5,-0.67,9.97
2702.0,0.51,-0.68,9.97
2715.0,0.53,-0.68,10.01
2728.0,0.53,-0.7,10.06
2741.0,0.51,-0.71,10.04
2754.0,0.54,-0.7,10.08
2767.0,0.67,-0.66,10.11
2779.0,0.7,-0.63,10.04
2792.0,0.58,-0.67,9.95
2805.0,0.49,-0.69,9.95
2818.0,0.51,-0.71,10.05
2831.0,0.64,-0.67,10.19
2844.0,0.85,-0.57,10.23
2857.0,0.79,-0.59,10.0
2869.0,0.48,-0.67,9.66
2882.0,0.28,-0.82,9.73
2895.0,0.31,-0.91,10.02
2908.0,0.6,-0.88,10.34
2921.0,0.89,-0.85,10.45
2934.0,0.82,-0.77,10.32
2947.0,0.64,-0.73,10.08
2959.0,0.48,-0.78,9.93
2972.0,0.4,-0.84,9.87
2985.0,0.49,-0.81,9.95
2998.0,0.57,-0.76,10.05
3011.0,0.55,-0.83,10.07
3024.0,0.48,-0.85,10.07
3037.0,0.48,-0.83,10.13
3049.0,0.52,-0.79,10.05
3062.0,0.45,-0.78,10.03
3075.0,0.29,-0.82,9.97
3088.0,0.14,-0.95,9.92
3101.0,0.09,-1.04,10.04
3114.0,0.28,-0.96,10.15
3127.0,0.47,-0.79,10.18
3139.0,0.58,-0.61,10.08
3152.0,0.58,-0.52,9.98
3165.0,0.45,-0.55,9.85
3178.0,0.27,-0.69,9.76
3191.0,0.05,-0.89,9.84
3204.0,-0.01,-1.03,10.01
3217.0,0.1,-1.05,10.18
3229.0,0.3,-0.92,10.24
3242.0,0.5,-0.75,10.16
3255.0,0.53,-0.63,9.99
3268.0,0.44,-0.61,9.84
3281.0,0.34,-0.66,9.8
3294.0,0.25,-0.79,9.92
3307.0,0.21,-0.95,10.01
3319.0,0.19,-1.0,10.12
3332.0,0.28,-0.95,10.13
3345.0,0.43,-0.85,10.1
3358.0,0.66,-0.65,10.07
3371.0,0.86,-0.5,10.1
3384.0,0.92,-0.48,10.1
3397.0,0.73,-0.62,10.01
3409.0,0.47,-0.79,10.03
3422.0,0.27,-0.92,10.06
3435.0,0.23,-1.01,10.08
3448.0,0.22,-0.95,10.05
3461.0,0.3,-0.87,10.01
3474.0,0.51,-0.7,10.09
3487.0,0.71,-0.59,10.08
3499.0,0.8,-0.52,10.06
3512.0,0.7,-0.59,10.02
3525.0,0.53,-0.68,10.0
3538.0,0.37,-0.85,9.96
3551.0,0.26,-0.93,9.96
3564.0,0.26,-0.96,10.01
3577.0,0.41,-0.85,10.08
3589.0,0.59,-0.74,10.09
3602.0,0.67,-0.67,10.09
3615.0,0.7,-0.67,10.07
3628.0,0.62,-0.68,10.02
3641.0,0.54,-0.76,10.0
3654.0,0.42,-0.81,10.01
3667.0,0.36,-0.85,10.0
3679.0,0.36,-0.86,10.01
3692.0,0.47,-0.8,10.1
3705.0,0.54,-0.75,10.1
3718.0,0.55,-0.71,10.01
3731.0,0.51,-0.68,9.99
3744.0,0.47,-0.7,9.95
3757.0,0.49,-0.76,9.96
3769.0,0.48,-0.79,10.0
3782.0,0.49,-0.85,10.08
3795.0,0.49,-0.85,10.13
3808.0,0.51,-0.79,10.14
3821.0,0.59,-0.7,10.09
3834.0,0.59,-0.68,9.97
3847.0,0.53,-0.69,9.91
3859.0,0.48,-0.75,9.95
3872.0,0.48,-0.82,10.04
3885.0,0.52,-0.84,10.18
3898.0,0.55,-0.8,10.16
3911.0,0.5,-0.73,10.04
3924.0,0.42,-0.73,9.91
3937.0,0.41,-0.73,9.89
3949.0,0.44,-0.75,9.91
3962.0,0.54,-0.77,10.02
3975.0,0.59,-0.79,10.13
3988.0,0.55,-0.8,10.14
4001.0,0.53,-0.79,10.09
4014.0,0.54,-0.74,10.05
4027.0,0.48,-0.76,9.94
4039.0,0.43,-0.75,9.98
4052.0,0.44,-0.8,10.0
4065.0,0.43,-0.77,10.02
4078.0,0.47,-0.76,10.07
4091.0,0.54,-0.76,10.06
4104.0,0.59,-0.72,10.07
4117.0,0.56,-0.74,10.05
4129.0,0.5,-0.8,10.04
4142.0,0.46,-0.82,10.05
4155.0,0.47,-0.81,10.06
4168.0,0.48,-0.78,10.03
4181.0,0.49,-0.78,10.04
4194.0,0.54,-0.75,10.06
4207.0,0.58,-0.74,10.09
4219.0,0.56,-0.74,10.04
4232.0,0.51,-0.73,10.02
4245.0,0.46,-0.76,9.99
4258.0,0.41,-0.79,9.97
4271.0,0.44,-0.77,10.05
4284.0,0.49,-0.78,10.07
4297.0,0.5,-0.77,10.04
4309.0,0.54,-0.73,10.09
4322.0,0.56,-0.74,10.1
4335.0,0.53,-0.72,10.06
4348.0,0.5,-0.74,10.04
4361.0,0.45,-0.75,10.01
4374.0,0.43,-0.77,9.98
4387.0,0.44,-0.76,10.02
4399.0,0.45,-0.76,10.04
4412.0,0.49,-0.79,10.07
4425.0,0.53,-0.75,10.08
4438.0,0.55,-0.76,10.08
4451.0,0.51,-0.75,10.01
4464.0,0.44,-0.74,9.98
4477.0,0.44,-0.74,9.96
4489.0,0.43,-0.76,9.97
4502.0,0.44,-0.78,10.02
4515.0,0.5,-0.76,10.08
4528.0,0.54,-0.76,10.07
4541.0,0.52,-0.74,9.99
4554.0,0.49,-0.75,9.93
4567.0,0.43,-0.77,9.91
4579.0,0.47,-0.79,10.0
4592.0,0.55,-0.81,10.12
4605.0,0.57,-0.82,10.11
4618.0,0.58,-0.78,10.08
4631.0,0.56,-0.77,10.02
4644.0,0.57,-0.75,10.0
4657.0,0.6,-0.77,10.03
4669.0,0.59,-0.72,10.1
4682.0,0.64,-0.78,10.07
4695.0,0.6,-0.81,10.09
4708.0,0.6,-0.79,10.11
4721.0,0.57,-0.75,10.07
4734.0,0.55,-0.71,10.03
4747.0,0.52,-0.71,9.99
4759.0,0.52,-0.74,10.01
4772.0,0.53,-0.76,10.05
4785.0,0.52,-0.78,10.11
4798.0,0.53,-0.79,10.16
4811.0,0.53,-0.8,10.24
4824.0,0.56,-0.77,10.16
4837.0,0.52,-0.72,10.01
4849.0,0.51,-0.69,9.97
4862.0,0.53,-0.7,9.97
4875.0,0.55,-0.68,10.02
4888.0,0.59,-0.67,10.03
4901.0,0.62,-0.66,10.05
4914.0,0.49,-0.69,9.94
4927.0,0.27,-0.74,9.85
4939.0,0.24,-0.76,9.84
4952.0,0.35,-0.75,10.01
4965.0,0.44,-0.73,10.06
4978.0,0.44,-0.73,10.05
4991.0,0.48,-0.71,10.07
5004.0,0.53,-0.71,10.09
5017.0,0.52,-0.68,10.05
5029.0,0.43,-0.68,9.99
5042.0,0.33,-0.7,9.98
5055.0,0.34,-0.72,10.02
5068.0,0.39,-0.72,9.97
5081.0,0.37,-0.72,10.0
5094.0,0.37,-0.77,10.02
5107.0,0.42,-0.79,10.08
5119.0,0.47,-0.74,10.09
5132.0,0.45,-0.71,10.06
5145.0,0.37,-0.71,10.0
5158.0,0.32,-0.71,9.96
5171.0,0.31,-0.73,9.92
5184.0,0.36,-0.8,9.96
5197.0,0.42,-0.85,10.06
5209.0,0.5,-0.84,10.15
5222.0,0.57,-0.8,10.15
5235.0,0.57,-0.74,10.08
5248.0,0.55,-0.75,10.07
5261.0,0.48,-0.79,10.1
5274.0,0.43,-0.8,10.07
5287.0,0.46,-0.78,10.08
5299.0,0.45,-0.78,10.01
5312.0,0.44,-0.8,9.96
5325.0,0.44,-0.81,9.99
5338.0,0.5,-0.77,10.08
5351.0,0.56,-0.74,10.08
5364.0,0.54,-0.66,10.0
5377.0,0.47,-0.65,9.99
5389.0,0.42,-0.71,9.95
5402.0,0.41,-0.75,9.97
5415.0,0.53,-0.81,10.0
5428.0,0.56,-0.82,10.09
5441.0,0.51,-0.87,10.14
5454.0,0.48,-0.9,10.24
5467.0,0.43,-0.91,10.2
5479.0,0.42,-0.87,10.06
5492.0,0.54,-0.84,10.06
5505.0,0.55,-0.88,10.11
5518.0,0.52,-0.94,10.25
5531.0,0.5,-0.93,10.3
5544.0,0.42,-0.85,10.16
5557.0,0.31,-0.75,9.89
5569.0,0.21,-0.67,9.61
5582.0,0.19,-0.57,9.58
5595.0,0.3,-0.61,9.76
5608.0,0.43,-0.66,9.9
5621.0,0.46,-0.75,10.13
5634.0,0.42,-0.83,10.22
5647.0,0.22,-0.93,10.11
5659.0,0.08,-0.94,9.96
5672.0,0.05,-0.91,9.94
5685.0,0.18,-0.87,10.01
5698.0,0.26,-0.87,10.02
5711.0,0.31,-0.9,10.12
5724.0,0.35,-0.93,10.18
5737.0,0.39,-0.93,10.18
5749.0,0.43,-0.92,10.14
5762.0,0.37,-0.9,10.06
5775.0,0.32,-0.86,10.02
5788.0,0.28,-0.84,9.93
5801.0,0.27,-0.85,9.87
5814.0,0.25,-0.87,9.91
5827.0,0.23,-0.91,9.98
5839.0,0.27,-0.93,10.08
5852.0,0.34,-0.92,10.15
5865.0,0.46,-0.84,10.2
5878.0,0.5,-0.82,10.2
5891.0,0.38,-0.84,10.04
5904.0,0.27,-0.82,9.91
5917.0,0.29,-0.76,9.81
5929.0,0.25,-0.79,9.82
5942.0,0.32,-0.86,9.95
5955.0,0.51,-0.85,10.21
5968.0,0.61,-0.82,10.25
5981.0,0.55,-0.82,10.14
5994.0,0.48,-0.83,10.01
6007.0,0.46,-0.8,9.99
6019.0,0.47,-0.81,9.97
6032.0,0.39,-0.83,9.95
6045.0,0.38,-0.87,9.99
6058.0,0.45,-0.88,10.08
6071.0,0.53,-0.87,10.1
6084.0,0.62,-0.88,10.17
6097.0,0.62,-0.86,10.17
6109.0,0.55,-0.86,10.09
6122.0,0.46,-0.89,10.11
6135.0,0.45,-0.92,10.17
6148.0,0.44,-0.91,10.24
6161.0,0.42,-0.91,10.11
6174.0,0.35,-0.89,9.94
6187.0,0.33,-0.87,9.99
6199.0,0.31,-0.88,10.0
6212.0,0.38,-0.84,10.03
6225.0,0.46,-0.78,10.12
6238.0,0.44,-0.76,10.1
6251.0,0.22,-0.76,9.95
6264.0,0.06,-0.8,9.79
6277.0,0.06,-0.81,9.74
6289.0,0.15,-0.82,9.86
6302.0,0.24,-0.81,9.98
6315.0,0.28,-0.81,10.09
6328.0,0.29,-0.8,10.07
6341.0,0.33,-0.75,10.11
6354.0,0.3,-0.77,9.97
6367.0,0.15,-0.87,9.89
6379.0,0.11,-0.88,9.92
6392.0,0.19,-0.87,10.04
6405.0,0.28,-0.83,10.09
6418.0,0.29,-0.78,10.05
6431.0,0.23,-0.76,9.95
6444.0,0.14,-0.77,9.85
6457.0,0.16,-0.83,9.81
6469.0,0.15,-0.91,9.9
6482.0,0.06,-1.01,10.0
6495.0,0.1,-1.05,10.11
6508.0,0.42,-0.92,10.24
6521.0,0.77,-0.76,10.13
6534.0,0.86,-0.63,9.97
6547.0,0.77,-0.55,9.9
6559.0,0.7,-0.58,9.86
6572.0,0.64,-0.66,9.96
6585.0,0.55,-0.85,10.07
6598.0,0.59,-1.02,10.22
6611.0,0.75,-1.02,10.41
6624.0,0.79,-0.99,10.36
6637.0,0.73,-0.89,10.16
6649.0,0.65,-0.84,10.03
6662.0,0.56,-0.8,9.88
6675.0,0.56,-0.8,9.87
6688.0,0.56,-0.85,9.97
6701.0,0.59,-0.89,10.1
6714.0,0.61,-0.9,10.14
6727.0,0.59,-0.88,10.07
6739.0,0.53,-0.91,9.95
6752.0,0.5,-0.88,9.93
6765.0,0.58,-0.84,10.05
6778.0,0.75,-0.82,10.14
6791.0,0.83,-0.86,10.28
6804.0,0.86,-0.93,10.3
6817.0,0.86,-0.96,10.32
6829.0,0.71,-0.98,10.32
6842.0,0.43,-0.97,10.16
6855.0,0.24,-0.86,9.79
6868.0,0.14,-0.73,9.45
6881.0,0.27,-0.69,9.52
6894.0,0.39,-0.76,9.86
6907.0,0.48,-0.87,10.25
6919.0,0.57,-0.96,10.44
6932.0,0.6,-0.99,10.51
6945.0,0.42,-0.94,10.27
6958.0,0.24,-0.86,9.86
6971.0,0.18,-0.77,9.59
6984.0,0.16,-0.64,9.56
6997.0,0.31,-0.59,9.69
7009.0,0.42,-0.6,9.86
7022.0,0.6,-0.72,10.24
7035.0,0.51,-0.88,10.29
7048.0,0.33,-0.99,10.17
7061.0,0.19,-0.99,10.03
7074.0,0.14,-1.01,9.93
7087.0,0.18,-0.97,9.96
7099.0,0.35,-0.88,10.01
7112.0,0.48,-0.77,10.05
7125.0,0.54,-0.66,10.0
7138.0,0.63,-0.55,9.86
7151.0,0.58,-0.54,9.7
7164.0,0.35,-0.62,9.69
7177.0,0.24,-0.79,9.81
7190.0,0.26,-0.98,9.94
7202.0,0.39,-1.04,10.07
7215.0,0.56,-1.02,10.21
7228.0,0.71,-0.98,10.27
7241.0,0.84,-0.92,10.29
7254.0,0.9,-0.88,10.32
7267.0,0.93,-0.86,10.12
7280.0,0.91,-0.86,10.01
7292.0,0.7,-0.87,10.03
7305.0,0.63,-0.91,10.05
7318.0,0.57,-0.94,10.03
7331.0,0.58,-0.97,10.03
7344.0,0.61,-0.98,10.07
7357.0,0.71,-0.93,10.08
7370.0,0.78,-0.87,10.05
7382.0,0.75,-0.86,10.06
7395.0,0.73,-0.86,9.99
7408.0,0.66,-0.89,9.96
7421.0,0.61,-0.95,9.97
7434.0,0.65,-0.97,10.08
7447.0,0.72,-0.94,10.11
7460.0,0.73,-0.93,10.06
7472.0,0.67,-0.89,9.92
7485.0,0.66,-0.84,9.89
7498.0,0.62,-0.87,9.88
7511.0,0.6,-0.93,9.97
7524.0,0.67,-0.97,10.09
7537.0,0.75,-0.97,10.18
7550.0,0.84,-0.94,10.24
7562.0,0.76,-0.94,10.11
7575.0,0.7,-0.95,10.04
7588.0,0.69,-0.92,9.96
7601.0,0.64,-0.91,9.99
7614.0,0.6,-0.92,9.94
7627.0,0.56,-0.93,9.93
7640.0,0.6,-0.97,9.98
7652.0,0.71,-0.94,10.11
7665.0,0.79,-0.91,10.14
7678.0,0.74,-0.88,10.1
7691.0,0.76,-0.9,10.09
7704.0,0.73,-0.93,10.04
7717.0,0.65,-0.93,10.0
7730.0,0.57,-0.95,9.98
7742.0,0.5,-0.94,9.98
7755.0,0.59,-0.93,10.01
7768.0,0.7,-0.84,10.06
7781.0,0.76,-0.82,10.03
7794.0,0.67,-0.79,9.88
7807.0,0.6,-0.79,9.84
7820.0,0.57,-0.83,9.85
7832.0,0.58,-0.88,9.93
7845.0,0.54,-0.97,9.98
7858.0,0.6,-1.03,10.14
7871.0,0.69,-1.02,10.21
7884.0,0.72,-0.97,10.16
7897.0,0.74,-0.91,10.05
7910.0,0.65,-0.87,9.92
7922.0,0.65,-0.88,9.95
7935.0,0.66,-0.94,10.0
7948.0,0.64,-0.99,10.09
7961.0,0.67,-1.01,10.14
7974.0,0.68,-1.01,10.07
7987.0,0.68,-0.99,10.04
8000.0,0.69,-0.96,10.02
8012.0,0.71,-0.87,10.01
8025.0,0.75,-0.85,10.02
8038.0,0.68,-0.91,9.99
8051.0,0.63,-0.96,10.02
8064.0,0.63,-0.98,10.1
8077.0,0.63,-1.01,10.15
8090.0,0.63,-1.04,10.21
8102.0,0.69,-1.03,10.28
8115.0,0.85,-0.97,10.35
8128.0,0.86,-0.9,10.3
8141.0,0.59,-0.8,10.09
8154.0,0.29,-0.75,9.76
8167.0,0.06,-0.74,9.49
8180.0,-0.07,-0.79,9.39
8192.0,0.01,-0.89,9.56
8205.0,0.24,-1.02,10.03
8218.0,0.43,-1.05,10.33
8231.0,0.51,-1.04,10.41
8244.0,0.48,-0.93,10.2
8257.0,0.46,-0.84,9.98
8270.0,0.37,-0.79,9.84
8282.0,0.35,-0.85,9.82
8295.0,0.31,-0.92,9.98
8308.0,0.28,-0.99,10.05
8321.0,0.25,-0.98,10.02
8334.0,0.32,-0.91,10.02
8347.0,0.39,-0.86,10.01
8360.0,0.46,-0.81,9.93
8372.0,0.44,-0.81,9.9
8385.0,0.36,-0.85,9.88
8398.0,0.29,-0.91,9.9
8411.0,0.35,-0.98,10.03
8424.0,0.49,-0.94,10.18
8437.0,0.57,-0.88,10.1
8450.0,0.67,-0.83,10.03
8462.0,0.7,-0.82,10.01
8475.0,0.66,-0.85,10.06
8488.0,0.73,-0.89,10.11
8501.0,0.77,-0.87,10.13
8514.0,0.75,-0.88,10.11
8527.0,0.63,-0.89,10.04
8540.0,0.65,-0.92,10.04
8552.0,0.63,-0.92,10.0
8565.0,0.61,-0.97,10.08
8578.0,0.67,-0.97,10.11
8591.0,0.72,-0.9,10.1
8604.0,0.74,-0.87,10.09
8617.0,0.71,-0.85,10.02
8630.0,0.73,-0.82,9.99
8642.0,0.69,-0.84,9.97
8655.0,0.63,-0.89,9.97
8668.0,0.59,-0.93,10.05
8681.0,0.58,-0.96,10.08
8694.0,0.67,-0.91,10.12
8707.0,0.73,-0.87,10.08
8720.0,0.73,-0.85,9.94
8732.0,0.68,-0.8,9.94
8745.0,0.68,-0.82,10.01
8758.0,0.66,-0.84,10.0
8771.0,0.69,-0.86,10.08
8784.0,0.71,-0.88,10.08
8797.0,0.66,-0.9,10.01
8810.0,0.65,-0.9,10.02
8822.0,0.67,-0.89,10.05
8835.0,0.69,-0.88,10.1
8848.0,0.71,-0.84,10.09
8861.0,0.69,-0.83,9.97
8874.0,0.68,-0.82,9.93
8887.0,0.68,-0.84,9.93
8900.0,0.62,-0.88,9.97
8912.0,0.6,-0.94,10.08
8925.0,0.63,-0.92,10.13
8938.0,0.7,-0.88,10.09
8951.0,0.76,-0.82,10.01
8964.0,0.79,-0.82,9.9
8977.0,0.77,-0.82,9.96
8990.0,0.7,-0.87,10.05
9002.0,0.67,-0.88,10.09
9015.0,0.67,-0.88,10.1
9028.0,0.62,-0.88,9.99
9041.0,0.65,-0.86,9.99
9054.0,0.76,-0.88,10.04
9067.0,0.7,-0.86,10.03
9080.0,0.66,-0.87,10.08
9092.0,0.62,-0.88,10.07
9105.0,0.71,-0.85,10.1
9118.0,0.77,-0.84,10.04
9131.0,0.67,-0.83,9.88
9144.0,0.68,-0.85,9.96
9157.0,0.68,-0.87,10.07
9170.0,0.64,-0.9,10.09
9182.0,0.7,-0.87,10.07
9195.0,0.74,-0.82,10.04
9208.0,0.69,-0.82,9.94
9221.0,0.67,-0.82,9.95
9234.0,0.67,-0.86,10.02
9247.0,0.62,-0.88,10.06
9260.0,0.62,-0.86,10.03
9272.0,0.66,-0.86,10.03
9285.0,0.7,-0.82,10.01
9298.0,0.71,-0.79,10.02
9311.0,0.65,-0.8,9.96
9324.0,0.61,-0.86,9.96
9337.0,0.59,-0.87,9.99
9350.0,0.66,-0.86,10.08
9362.0,0.69,-0.87,10.09
9375.0,0.76,-0.88,10.05
9388.0,0.83,-0.89,10.06
9401.0,0.78,-0.87,10.06
9414.0,0.73,-0.85,10.02
9427.0,0.68,-0.84,10.01
9440.0,0.64,-0.86,10.0
9452.0,0.72,-0.88,10.04
9465.0,0.82,-0.85,10.1
9478.0,0.83,-0.84,10.0
9491.0,0.79,-0.9,9.98
9504.0,0.81,-0.92,10.04
9517.0,0.76,-0.96,10.07
9530.0,0.69,-0.98,10.03
9542.0,0.69,-0.96,9.99
9555.0,0.68,-0.93,10.04
9568.0,0.7,-0.89,10.08
9581.0,0.69,-0.87,10.05
9594.0,0.65,-0.85,10.0
9607.0,0.7,-0.79,10.05
9620.0,0.66,-0.82,10.02
9632.0,0.61,-0.82,10.01
9645.0,0.62,-0.82,10.0
9658.0,0.56,-0.83,9.98
9671.0,0.52,-0.84,9.99
9684.0,0.52,-0.82,10.0
9697.0,0.55,-0.82,10.06
9710.0,0.63,-0.87,10.07
9722.0,0.7,-0.9,10.07
9735.0,0.75,-0.92,10.11
9748.0,0.75,-0.86,10.08
9761.0,0.69,-0.87,10.02
9774.0,0.56,-0.93,9.95
9787.0,0.55,-0.96,10.0
9800.0,0.52,-1.01,10.03
9812.0,0.47,-1.05,10.06
9825.0,0.63,-1.02,10.14
9838.0,0.68,-1.01,10.12
9851.0,0.44,-1.01,9.97
9864.0,0.25,-1.06,9.84
9877.0,0.21,-1.08,9.81
9890.0,0.27,-1.08,9.87
9902.0,0.39,-1.01,9.98
9915.0,0.66,-0.9,10.2
9928.0,0.8,-0.79,10.08
9941.0,0.71,-0.78,9.93
9954.0,0.51,-0.87,9.85
9967.0,0.38,-0.98,9.92
9980.0,0.38,-1.02,9.96
9992.0,0.4,-1.05,9.97
10005.0,0.46,-1.07,10.04
10018.0,0.55,-1.01,10.19
10031.0,0.76,-0.91,10.29
10044.0,0.9,-0.86,10.13
10057.0,0.87,-0.79,9.98
10070.0,0.71,-0.76,9.89
10082.0,0.63,-0.81,9.9
10095.0,0.66,-0.93,9.92
10108.0,0.71,-1.01,10.01
10121.0,0.83,-0.97,10.21
10134.0,0.86,-0.96,10.19
10147.0,0.75,-1.0,10.11
10160.0,0.67,-1.09,10.13
10172.0,0.71,-1.05,10.23
10185.0,0.74,-1.02,10.37
10198.0,0.65,-1.08,10.31
10211.0,0.71,-1.02,10.1
10224.0,0.67,-0.95,10.0
10237.0,0.66,-0.83,9.88
10250.0,0.64,-0.77,9.84
10262.0,0.53,-0.82,9.85
10275.0,0.38,-0.9,9.88
10288.0,0.21,-0.98,9.9
10301.0,0.08,-1.06,9.93
10314.0,0.09,-1.09,9.93
10327.0,0.19,-1.04,9.99
10340.0,0.32,-0.94,10.02
10352.0,0.45,-0.81,10.06
10365.0,0.49,-0.73,10.02
10378.0,0.42,-0.72,9.88
10391.0,0.24,-0.81,9.79
10404.0,0.2,-0.92,9.83
10417.0,0.11,-0.97,9.89
10430.0,0.19,-0.99,9.97
10442.0,0.31,-0.98,9.96
10455.0,0.54,-0.87,10.16
10468.0,0.79,-0.75,10.15
10481.0,0.86,-0.73,10.04
10494.0,0.7,-0.81,10.04
10507.0,0.65,-0.94,10.1
10520.0,0.71,-0.97,10.19
10532.0,0.77,-0.98,10.2
10545.0,0.81,-1.0,10.19
10558.0,0.71,-0.97,10.12
10571.0,0.64,-0.94,10.02
10584.0,0.67,-0.87,10.01
10597.0,0.74,-0.8,10.04
10610.0,0.8,-0.77,9.96
10622.0,0.79,-0.81,9.99
10635.0,0.66,-0.87,10.05
10648.0,0.62,-0.92,10.13
10661.0,0.62,-0.95,10.12
10674.0,0.7,-0.93,10.09
10687.0,0.7,-0.89,10.07
10700.0,0.62,-0.89,10.06
10713.0,0.57,-0.9,10.1
10725.0,0.63,-0.88,10.14
10738.0,0.59,-0.83,10.11
10751.0,0.53,-0.86,9.98
10764.0,0.47,-0.86,9.93
10777.0,0.41,-0.89,9.9
10790.0,0.29,-0.94,9.89
10803.0,0.26,-0.97,9.97
10815.0,0.27,-0.96,9.98
10828.0,0.39,-0.93,10.03
10841.0,0.55,-0.83,10.05
10854.0,0.57,-0.8,10.03
10867.0,0.47,-0.82,9.97
10880.0,0.28,-0.86,9.93
10893.0,0.24,-0.94,9.92
10905.0,0.3,-0.98,10.0
10918.0,0.38,-1.01,10.11
10931.0,0.43,-0.96,10.16
10944.0,0.44,-0.91,10.09
10957.0,0.47,-0.86,10.07
10970.0,0.46,-0.86,9.99
10983.0,0.35,-0.92,9.87
10995.0,0.34,-0.97,9.93
11008.0,0.38,-0.96,10.02
11021.0,0.47,-0.93,10.08
11034.0,0.51,-0.93,10.1
11047.0,0.46,-0.92,10.04
11060.0,0.35,-0.9,9.95
11073.0,0.32,-0.87,9.93
11085.0,0.47,-0.84,9.97
11098.0,0.58,-0.84,10.05
11111.0,0.63,-0.86,10.08
11124.0,0.58,-0.88,10.03
11137.0,0.51,-0.93,10.01
11150.0,0.42,-0.95,9.97
11163.0,0.39,-0.96,9.98
11175.0,0.45,-0.97,10.01
11188.0,0.49,-0.99,10.01
11201.0,0.66,-0.95,10.17
11214.0,0.74,-0.9,10.2
11227.0,0.79,-0.87,10.13
11240.0,0.71,-0.89,10.03
11253.0,0.57,-0.93,9.92
11265.0,0.53,-0.99,9.95
11278.0,0.52,-1.01,10.07
11291.0,0.6,-1.01,10.16
11304.0,0.69,-0.93,10.15
11317.0,0.76,-0.87,10.02
11330.0,0.74,-0.77,9.96
11343.0,0.68,-0.76,9.89
11355.0,0.62,-0.83,9.87
11368.0,0.56,-0.94,9.9
11381.0,0.51,-1.03,10.08
11394.0,0.55,-1.07,10.23
11407.0,0.64,-1.06,10.24
11420.0,0.74,-1.01,10.28
11433.0,0.78,-0.99,10.23
11445.0,0.71,-0.96,10.08
11458.0,0.61,-0.87,10.04
11471.0,0.45,-0.86,9.93
11484.0,0.41,-0.86,9.76
11497.0,0.28,-0.95,9.89
11510.0,0.26,-1.07,9.99
11523.0,0.26,-1.1,10.05
11535.0,0.26,-1.1,10.18
11548.0,0.33,-1.04,10.21
11561.0,0.37,-0.93,10.09
11574.0,0.38,-0.85,9.89
11587.0,0.33,-0.84,9.76
11600.0,0.25,-0.79,9.78
11613.0,0.25,-0.8,9.86
11625.0,0.3,-0.84,9.95
11638.0,0.26,-0.9,9.97
11651.0,0.25,-0.99,10.02
11664.0,0.25,-1.03,10.04
11677.0,0.34,-1.03,10.1
11690.0,0.43,-1.0,10.16
11703.0,0.5,-0.95,10.1
11715.0,0.53,-0.84,10.01
11728.0,0.53,-0.81,9.9
11741.0,0.44,-0.88,9.9
11754.0,0.35,-0.99,10.0
11767.0,0.35,-1.09,10.13
11780.0,0.36,-1.13,10.12
11793.0,0.37,-1.06,10.16
11805.0,0.43,-0.96,10.12
11818.0,0.53,-0.89,10.03
11831.0,0.52,-0.86,10.0
11844.0,0.44,-0.9,9.97
11857.0,0.37,-0.95,9.97
11870.0,0.33,-0.98,9.94
11883.0,0.31,-0.97,10.01
11895.0,0.42,-0.94,9.98
11908.0,0.51,-0.88,10.05
11921.0,0.54,-0.86,10.05
11934.0,0.51,-0.85,10.01
11947.0,0.4,-0.9,9.92
11960.0,0.34,-1.0,9.94
11973.0,0.33,-1.04,10.05
11985.0,0.36,-0.95,10.11
11998.0,0.51,-0.87,9.95
12011.0,0.53,-0.79,9.87
12024.0,0.51,-0.84,9.93
12037.0,0.51,-0.88,9.89
12050.0,0.56,-0.94,9.96
12063.0,0.63,-1.0,10.04
12075.0,0.71,-1.03,10.12
12088.0,0.77,-1.02,10.15
12101.0,0.82,-0.99,10.11
12114.0,0.72,-0.91,10.04
12127.0,0.75,-0.83,9.8
12140.0,0.51,-0.83,9.71
12153.0,0.62,-0.91,9.73
12165.0,0.77,-1.04,9.93
12178.0,0.78,-1.14,10.24
12191.0,0.87,-1.17,10.2
12204.0,1.05,-1.17,10.43
12217.0,1.16,-1.09,10.39
12230.0,1.24,-1.03,10.14
12243.0,1.11,-1.0,9.96
12255.0,0.91,-1.0,9.92
12268.0,0.84,-0.97,9.85
12281.0,0.94,-0.96,9.86
12294.0,0.93,-0.95,9.92
12307.0,0.99,-1.03,10.07
12320.0,1.07,-1.07,10.21
12333.0,1.08,-1.13,10.21
12345.0,1.07,-1.11,10.2
12358.0,1.06,-1.07,10.16
12371.0,0.96,-0.99,10.11
12384.0,0.9,-0.91,9.88
12397.0,0.79,-0.83,9.76
12410.0,0.69,-0.85,9.78
12423.0,0.64,-0.91,9.9
12435.0,0.68,-0.94,9.99
12448.0,0.68,-1.03,10.04
12461.0,0.64,-1.13,10.07
12474.0,0.76,-1.09,10.16
12487.0,0.88,-1.07,10.24
12500.0,0.79,-1.04,10.05
12513.0,0.81,-1.01,9.94
12525.0,0.78,-1.02,9.94
12538.0,0.7,-1.02,10.06
12551.0,0.84,-1.05,10.21
12564.0,0.97,-1.1,10.37
12577.0,0.96,-1.14,10.43
12590.0,1.02,-1.13,10.36
12603.0,0.79,-1.02,10.22
12615.0,0.52,-0.86,9.92
12628.0,0.33,-0.64,9.61
12641.0,0.42,-0.48,9.49
12654.0,0.55,-0.54,9.48
12667.0,0.53,-0.65,9.85
12680.0,0.47,-0.85,10.07
12693.0,0.34,-0.95,10.1
12705.0,0.22,-0.95,10.04
12718.0,0.25,-0.9,9.88
12731.0,0.42,-0.8,9.86
12744.0,0.59,-0.72,9.92
12757.0,0.61,-0.71,9.95
12770.0,0.54,-0.76,9.98
12783.0,0.43,-0.86,10.0
12795.0,0.34,-0.95,10.0
12808.0,0.37,-1.01,10.04
12821.0,0.4,-1.03,10.11
12834.0,0.44,-1.01,10.2
12847.0,0.57,-0.93,10.2
