timestamp,accX,accY,accZ
2.0,1.52,-1.24,9.77
15.0,1.28,-1.04,7.88
28.0,1.54,-1.25,9.33
41.0,1.58,-1.27,9.57
54.0,1.52,-1.3,9.81
66.0,1.45,-1.36,10.07
79.0,1.36,-1.36,10.19
92.0,1.35,-1.37,10.28
105.0,1.34,-1.38,10.25
118.0,1.43,-1.27,10.12
131.0,1.41,-1.19,9.93
144.0,1.35,-1.16,9.74
157.0,1.42,-1.25,9.72
169.0,1.51,-1.36,9.71
182.0,1.52,-1.46,9.76
195.0,1.5,-1.49,9.76
208.0,1.48,-1.53,9.73
221.0,1.49,-1.59,9.71
234.0,1.45,-1.61,9.71
247.0,1.41,-1.63,9.84
259.0,1.4,-1.64,9.94
272.0,1.38,-1.57,9.92
285.0,1.34,-1.53,9.93
298.0,1.35,-1.5,10.0
311.0,1.32,-1.5,10.09
324.0,1.29,-1.52,10.14
337.0,1.25,-1.52,10.15
349.0,1.27,-1.5,10.03
362.0,1.32,-1.45,9.87
375.0,1.32,-1.41,9.72
388.0,1.34,-1.39,9.59
401.0,1.4,-1.41,9.59
414.0,1.41,-1.47,9.68
427.0,1.35,-1.47,9.79
439.0,1.24,-1.45,9.9
452.0,1.11,-1.43,9.97
465.0,1.14,-1.45,9.97
478.0,1.14,-1.53,10.05
491.0,1.12,-1.56,10.08
504.0,1.09,-1.64,10.12
517.0,1.21,-1.71,10.07
529.0,1.27,-1.78,10.05
542.0,1.28,-1.77,10.03
555.0,1.24,-1.76,9.91
568.0,1.22,-1.7,9.85
581.0,1.2,-1.65,9.79
594.0,1.16,-1.65,9.84
607.0,1.11,-1.6,9.88
619.0,1.01,-1.54,9.89
632.0,0.96,-1.53,9.94
645.0,0.96,-1.53,10.0
658.0,0.99,-1.54,10.01
671.0,1.08,-1.53,10.0
684.0,1.1,-1.51,9.93
697.0,1.15,-1.51,9.93
709.0,1.19,-1.48,9.93
722.0,1.19,-1.46,9.89
735.0,1.15,-1.46,9.88
748.0,1.2,-1.49,9.82
761.0,1.24,-1.54,9.8
774.0,1.29,-1.55,9.79
787.0,1.27,-1.54,9.76
799.0,1.23,-1.51,9.76
812.0,1.25,-1.51,9.79
825.0,1.23,-1.53,9.86
838.0,1.23,-1.56,9.91
851.0,1.2,-1.55,9.95
864.0,1.21,-1.55,10.01
877.0,1.17,-1.58,10.04
889.0,1.16,-1.56,10.07
902.0,1.16,-1.56,10.12
915.0,1.11,-1.52,10.01
928.0,1.05,-1.5,10.01
941.0,1.04,-1.46,10.0
954.0,1.09,-1.44,9.96
967.0,1.13,-1.44,9.94
979.0,1.19,-1.44,9.91
992.0,1.23,-1.43,9.93
1005.0,1.24,-1.41,10.05
1018.0,1.2,-1.39,10.05
1031.0,1.19,-1.4,10.0
1044.0,1.25,-1.4,9.98
1057.0,1.2,-1.38,9.91
1069.0,1.2,-1.39,9.88
1082.0,1.24,-1.43,9.88
1095.0,1.29,-1.45,9.94
1108.0,1.32,-1.52,9.98
1121.0,1.29,-1.6,10.06
1134.0,1.28,-1.67,10.12
1147.0,1.24,-1.68,10.24
1159.0,1.19,-1.62,10.23
1172.0,1.18,-1.52,10.19
1185.0,1.12,-1.43,10.04
1198.0,1.11,-1.38,9.9
1211.0,1.16,-1.32,9.77
1224.0,1.2,-1.34,9.6
1237.0,1.24,-1.38,9.52
1249.0,1.26,-1.4,9.47
1262.0,1.26,-1.39,9.43
1275.0,1.33,-1.41,9.43
1288.0,1.4,-1.51,9.5
1301.0,1.45,-1.61,9.63
1314.0,1.42,-1.71,9.81
1327.0,1.4,-1.76,9.94
1339.0,1.38,-1.81,10.03
1352.0,1.4,-1.84,10.0
1365.0,1.39,-1.85,10.01
1378.0,1.41,-1.87,9.95
1391.0,1.44,-1.86,9.9
1404.0,1.4,-1.84,9.9
1417.0,1.33,-1.81,9.94
1429.0,1.22,-1.73,10.05
1442.0,1.28,-1.69,9.98
1455.0,1.28,-1.76,10.09
1468.0,1.28,-1.77,10.1
1481.0,1.27,-1.72,10.04
1494.0,1.29,-1.71,9.99
1507.0,1.35,-1.65,9.94
1519.0,1.46,-1.57,9.82
1532.0,1.5,-1.6,9.89
1545.0,1.45,-1.57,9.96
1558.0,1.32,-1.53,10.01
1571.0,1.24,-1.53,10.02
1584.0,1.28,-1.49,9.92
1597.0,1.35,-1.46,9.8
1609.0,1.37,-1.37,9.71
1622.0,1.37,-1.31,9.63
1635.0,1.41,-1.25,9.62
1648.0,1.48,-1.2,9.68
1661.0,1.45,-1.17,9.7
1674.0,1.44,-1.18,9.91
1687.0,1.43,-1.22,10.03
1699.0,1.48,-1.3,10.08
1712.0,1.51,-1.3,10.04
1725.0,1.54,-1.26,9.91
1738.0,1.5,-1.19,9.85
1751.0,1.44,-1.1,9.69
1764.0,1.4,-1.09,9.65
1777.0,1.34,-1.11,9.64
1789.0,1.29,-1.11,9.61
1802.0,1.3,-1.09,9.43
1815.0,1.3,-1.19,9.5
1828.0,1.34,-1.3,9.55
1841.0,1.35,-1.43,9.75
1854.0,1.32,-1.53,9.99
1867.0,1.21,-1.67,10.31
1879.0,1.03,-1.67,10.48
1892.0,0.94,-1.64,10.5
1905.0,1.01,-1.57,10.35
1918.0,1.15,-1.48,10.22
1931.0,1.25,-1.41,10.04
1944.0,1.33,-1.31,9.93
1957.0,1.37,-1.25,9.81
1969.0,1.42,-1.29,9.82
1982.0,1.51,-1.34,9.83
1995.0,1.54,-1.33,9.82
2008.0,1.52,-1.34,9.87
2021.0,1.47,-1.34,9.89
2034.0,1.46,-1.33,9.87
2047.0,1.4,-1.28,9.76
2059.0,1.34,-1.29,9.76
2072.0,1.36,-1.3,9.75
2085.0,1.29,-1.39,9.81
2098.0,1.29,-1.46,9.84
2111.0,1.25,-1.53,10.01
2124.0,1.21,-1.55,10.09
2137.0,1.14,-1.56,10.18
2149.0,1.13,-1.53,10.16
2162.0,1.17,-1.44,10.06
2175.0,1.22,-1.41,9.98
2188.0,1.27,-1.35,9.9
2201.0,1.26,-1.32,9.92
2214.0,1.24,-1.28,9.93
2227.0,1.21,-1.26,9.94
2239.0,1.27,-1.23,9.98
2252.0,1.28,-1.19,9.99
2265.0,1.28,-1.16,9.96
2278.0,1.29,-1.13,9.92
2291.0,1.31,-1.09,9.88
2304.0,1.3,-1.1,9.87
2317.0,1.32,-1.11,9.89
2329.0,1.32,-1.1,9.92
2342.0,1.3,-1.1,9.92
2355.0,1.31,-1.14,9.93
2368.0,1.31,-1.19,9.93
2381.0,1.31,-1.21,9.99
2394.0,1.32,-1.26,9.97
2407.0,1.33,-1.32,9.99
2419.0,1.33,-1.37,10.05
2432.0,1.29,-1.38,10.06
2445.0,1.24,-1.39,10.02
2458.0,1.23,-1.35,10.01
2471.0,1.21,-1.3,9.94
2484.0,1.22,-1.32,9.91
2497.0,1.21,-1.3,9.91
2509.0,1.21,-1.32,9.88
2522.0,1.24,-1.36,9.93
2535.0,1.24,-1.35,9.92
2548.0,1.22,-1.31,9.89
2561.0,1.22,-1.29,9.85
2574.0,1.26,-1.3,9.88
2587.0,1.27,-1.32,9.94
2599.0,1.28,-1.31,9.99
2612.0,1.25,-1.33,10.05
2625.0,1.26,-1.33,10.09
2638.0,1.25,-1.32,10.1
2651.0,1.25,-1.32,10.03
2664.0,1.26,-1.33,9.9
2677.0,1.31,-1.34,9.83
2689.0,1.37,-1.41,9.83
2702.0,1.36,-1.41,9.79
2715.0,1.3,-1.39,9.8
2728.0,1.26,-1.37,9.85
2741.0,1.25,-1.36,9.92
2754.0,1.24,-1.38,9.97
2767.0,1.22,-1.41,10.01
2779.0,1.22,-1.39,10.05
2792.0,1.22,-1.4,10.04
2805.0,1.19,-1.4,9.99
2818.0,1.18,-1.41,9.97
2831.0,1.2,-1.41,9.89
2844.0,1.24,-1.41,9.88
2857.0,1.22,-1.41,9.86
2869.0,1.22,-1.39,9.9
2882.0,1.21,-1.38,9.94
2895.0,1.22,-1.38,10.0
2908.0,1.23,-1.38,10.0
2921.0,1.22,-1.36,9.96
2934.0,1.28,-1.34,9.91
2947.0,1.33,-1.33,9.83
2959.0,1.36,-1.34,9.83
2972.0,1.33,-1.4,9.95
2985.0,1.35,-1.44,9.99
2998.0,1.2,-1.42,10.0
3011.0,1.14,-1.41,9.99
3024.0,1.15,-1.38,9.91
3037.0,1.17,-1.39,9.87
3049.0,1.22,-1.38,9.84
3062.0,1.19,-1.41,9.86
3075.0,1.2,-1.4,9.88
3088.0,1.25,-1.45,9.95
3101.0,1.19,-1.47,9.92
3114.0,1.13,-1.45,9.95
3127.0,1.09,-1.43,9.96
3139.0,1.08,-1.38,9.9
3152.0,1.12,-1.35,9.92
3165.0,1.16,-1.35,9.94
3178.0,1.14,-1.34,9.97
3191.0,1.15,-1.33,9.96
3204.0,1.17,-1.36,10.01
3217.0,1.18,-1.37,10.0
3229.0,1.17,-1.41,9.99
3242.0,1.16,-1.4,9.97
3255.0,1.19,-1.38,9.93
3268.0,1.16,-1.38,9.87
3281.0,1.16,-1.38,9.84
3294.0,1.18,-1.38,9.82
3307.0,1.14,-1.39,9.84
3319.0,1.13,-1.41,9.9
3332.0,1.15,-1.44,9.99
3345.0,1.11,-1.46,10.06
3358.0,1.11,-1.48,10.13
3371.0,1.1,-1.41,10.12
3384.0,1.07,-1.38,10.03
3397.0,1.08,-1.35,9.97
3409.0,1.16,-1.37,9.85
3422.0,1.23,-1.38,9.8
3435.0,1.25,-1.39,9.75
3448.0,1.21,-1.4,9.85
3461.0,1.15,-1.38,9.89
3474.0,1.14,-1.38,9.87
3487.0,1.18,-1.44,9.93
3499.0,1.24,-1.44,9.92
3512.0,1.23,-1.48,9.93
3525.0,1.16,-1.48,10.0
3538.0,1.05,-1.47,10.05
3551.0,1.05,-1.45,10.08
3564.0,1.08,-1.46,10.02
3577.0,1.1,-1.47,9.97
3589.0,1.14,-1.44,9.87
3602.0,1.11,-1.38,9.84
3615.0,1.1,-1.36,9.82
3628.0,1.15,-1.39,9.86
3641.0,1.23,-1.44,10.01
3654.0,1.17,-1.4,10.03
3667.0,1.18,-1.44,10.08
3679.0,1.28,-1.43,10.09
3692.0,1.24,-1.4,9.98
3705.0,0.93,-1.34,10.09
3718.0,1.09,-1.62,10.13
3731.0,1.31,-1.53,10.07
3744.0,1.2,-1.59,10.22
3757.0,1.16,-1.58,10.17
3769.0,0.99,-1.58,10.18
3782.0,1.1,-1.51,10.11
3795.0,1.17,-1.48,9.95
3808.0,1.18,-1.39,9.89
3821.0,1.18,-1.28,9.61
3834.0,1.14,-1.18,9.57
3847.0,1.2,-1.07,9.5
3859.0,1.25,-1.05,9.59
3872.0,1.18,-1.04,9.57
3885.0,1.17,-1.0,9.69
3898.0,1.2,-1.0,9.8
3911.0,1.22,-0.99,9.82
3924.0,1.26,-0.95,9.8
3937.0,1.19,-0.92,9.95
3949.0,1.1,-0.97,10.15
3962.0,1.14,-1.1,10.35
3975.0,1.09,-1.15,10.39
3988.0,1.05,-1.24,10.38
4001.0,1.09,-1.29,10.4
4014.0,1.14,-1.27,10.26
4027.0,1.1,-1.2,10.1
4039.0,1.06,-1.15,9.95
4052.0,1.13,-1.15,9.88
4065.0,1.27,-1.17,9.81
4078.0,1.18,-1.13,9.89
4091.0,1.12,-1.04,9.71
4104.0,1.07,-0.92,9.77
4117.0,0.83,-0.79,9.69
4129.0,0.69,-0.72,9.73
4142.0,0.74,-0.69,9.81
4155.0,0.87,-0.7,9.87
4168.0,0.97,-0.73,9.95
4181.0,1.02,-0.82,10.1
4194.0,1.03,-0.8,10.0
4207.0,0.96,-0.83,10.02
4219.0,0.99,-0.88,10.01
4232.0,0.92,-0.89,10.0
4245.0,0.83,-0.86,10.03
4258.0,0.85,-0.89,10.01
4271.0,0.87,-0.94,9.98
4284.0,0.92,-1.06,10.06
4297.0,0.9,-1.15,10.14
4309.0,0.82,-1.23,10.18
4322.0,0.77,-1.25,10.03
4335.0,0.8,-1.24,9.95
4348.0,0.88,-1.23,9.9
4361.0,0.86,-1.2,9.85
4374.0,0.87,-1.18,9.88
4387.0,0.86,-1.2,9.94
4399.0,0.88,-1.27,10.0
4412.0,0.91,-1.35,10.08
4425.0,0.91,-1.38,10.17
4438.0,0.85,-1.37,10.19
4451.0,0.85,-1.34,10.17
4464.0,0.88,-1.33,10.19
4477.0,0.91,-1.29,10.09
4489.0,0.87,-1.25,10.08
4502.0,0.81,-1.13,10.11
4515.0,0.75,-1.05,9.95
4528.0,0.87,-1.08,9.96
4541.0,1.02,-1.16,9.98
4554.0,1.06,-1.17,9.98
4567.0,0.99,-1.21,9.97
4579.0,0.94,-1.2,9.97
4592.0,0.95,-1.25,10.03
4605.0,0.99,-1.3,10.03
4618.0,0.98,-1.3,9.96
4631.0,0.99,-1.25,9.83
4644.0,0.96,-1.21,9.68
4657.0,1.0,-1.2,9.67
4669.0,0.99,-1.19,9.69
4682.0,1.01,-1.22,9.78
4695.0,0.98,-1.23,9.83
4708.0,0.99,-1.28,9.91
4721.0,1.01,-1.32,10.03
4734.0,0.97,-1.32,10.13
4747.0,0.98,-1.38,10.18
4759.0,0.96,-1.38,10.19
4772.0,0.96,-1.36,10.06
4785.0,0.97,-1.33,9.94
4798.0,1.02,-1.34,9.88
4811.0,1.02,-1.34,9.86
4824.0,1.01,-1.33,9.89
4837.0,0.95,-1.31,9.89
4849.0,0.94,-1.31,9.94
4862.0,0.94,-1.3,9.97
4875.0,0.92,-1.35,9.98
4888.0,0.99,-1.35,10.04
4901.0,0.96,-1.34,10.2
4914.0,0.92,-1.3,10.07
4927.0,0.98,-1.28,9.99
4939.0,1.04,-1.25,9.89
4952.0,1.11,-1.26,9.82
4965.0,1.21,-1.31,9.82
4978.0,1.18,-1.3,9.83
4991.0,1.09,-1.3,9.9
5004.0,1.02,-1.24,9.9
5017.0,0.98,-1.23,9.91
5030.0,1.03,-1.23,9.92
5042.0,1.02,-1.24,9.94
5055.0,1.05,-1.25,9.91
5068.0,1.07,-1.25,9.91
5081.0,1.03,-1.23,9.83
5094.0,1.03,-1.24,9.82
5107.0,1.04,-1.27,9.85
5120.0,0.99,-1.25,9.89
5132.0,0.92,-1.22,9.99
5145.0,0.87,-1.15,9.99
5158.0,0.88,-1.12,10.05
5171.0,0.95,-1.14,10.0
5184.0,1.06,-1.14,10.0
5197.0,1.09,-1.17,9.91
5210.0,1.18,-1.16,9.82
5222.0,1.26,-1.2,9.87
5235.0,1.28,-1.19,9.89
5248.0,1.19,-1.16,10.06
5261.0,1.07,-1.06,10.08
5274.0,1.07,-1.08,10.15
5287.0,1.08,-1.15,10.21
5300.0,1.07,-1.15,10.15
5312.0,1.08,-1.12,10.05
5325.0,1.06,-1.11,9.94
5338.0,1.07,-1.05,9.88
5351.0,1.04,-0.97,9.73
5364.0,1.05,-1.02,9.88
5377.0,1.09,-1.03,9.96
5390.0,1.01,-1.05,10.08
5402.0,0.94,-1.07,10.11
5415.0,0.88,-1.06,10.15
5428.0,0.85,-1.08,10.05
5441.0,0.89,-1.21,10.04
5454.0,0.9,-1.36,9.95
5467.0,0.86,-1.45,9.96
5480.0,0.77,-1.52,9.99
5492.0,0.73,-1.56,9.97
5505.0,0.71,-1.58,9.95
5518.0,0.73,-1.61,9.98
5531.0,0.68,-1.63,10.04
5544.0,0.59,-1.58,10.05
5557.0,0.57,-1.53,10.02
5570.0,0.66,-1.47,9.93
5582.0,0.76,-1.44,9.9
5595.0,0.82,-1.41,9.88
5608.0,0.83,-1.35,9.91
5621.0,0.79,-1.32,10.04
5634.0,0.8,-1.28,10.1
5647.0,0.88,-1.27,10.16
5660.0,0.82,-1.24,10.14
5672.0,0.85,-1.2,10.0
5685.0,0.92,-1.21,9.9
5698.0,0.96,-1.2,9.76
5711.0,1.02,-1.19,9.78
5724.0,0.99,-1.16,9.76
5737.0,0.99,-1.13,9.79
5750.0,0.97,-1.13,9.79
5762.0,0.94,-1.14,9.84
5775.0,0.85,-1.12,9.83
5788.0,0.85,-1.19,9.96
5801.0,0.78,-1.27,10.14
5814.0,0.66,-1.3,10.18
5827.0,0.66,-1.35,10.31
5840.0,0.73,-1.36,10.18
5852.0,0.75,-1.36,10.08
5865.0,0.82,-1.35,10.0
5878.0,0.84,-1.27,9.95
5891.0,0.77,-1.24,9.9
5904.0,0.8,-1.22,9.85
5917.0,0.89,-1.22,9.83
5930.0,0.93,-1.25,9.85
5942.0,0.95,-1.26,9.9
5955.0,0.96,-1.26,9.95
5968.0,0.95,-1.25,9.98
5981.0,0.93,-1.24,9.96
5994.0,0.9,-1.19,9.91
6007.0,0.89,-1.11,9.86
6020.0,0.91,-1.08,9.79
6032.0,0.96,-1.11,9.87
6045.0,0.98,-1.16,10.02
6058.0,0.95,-1.15,10.06
6071.0,0.9,-1.13,10.13
6084.0,0.88,-1.09,10.24
6097.0,0.83,-1.06,10.29
6110.0,0.76,-0.99,10.18
6122.0,0.71,-0.97,10.11
6135.0,0.78,-0.95,10.0
6148.0,0.83,-0.96,9.85
6161.0,0.89,-1.01,9.82
6174.0,0.87,-1.06,9.79
6187.0,0.84,-1.11,9.75
6200.0,0.82,-1.16,9.83
6212.0,0.8,-1.18,9.85
6225.0,0.78,-1.24,9.94
6238.0,0.78,-1.29,10.04
6251.0,0.75,-1.34,10.12
6264.0,0.74,-1.36,10.11
6277.0,0.74,-1.4,10.11
6290.0,0.74,-1.41,10.03
6302.0,0.75,-1.42,9.99
6315.0,0.79,-1.41,9.94
6328.0,0.8,-1.37,9.89
6341.0,0.83,-1.33,9.85
6354.0,0.79,-1.33,9.93
6367.0,0.74,-1.31,9.99
6380.0,0.71,-1.33,10.08
6392.0,0.73,-1.27,10.13
6405.0,0.8,-1.26,10.13
6418.0,0.82,-1.27,10.11
6431.0,0.83,-1.26,10.04
6444.0,0.83,-1.26,10.06
6457.0,0.8,-1.33,10.23
6470.0,0.76,-1.35,10.26
6482.0,0.8,-1.3,10.09
6495.0,0.86,-1.2,10.01
6508.0,0.9,-1.13,9.95
6521.0,0.89,-1.18,10.11
6534.0,0.83,-1.23,10.2
6547.0,0.82,-1.19,10.1
6560.0,0.91,-1.12,9.93
6572.0,0.97,-1.05,9.78
6585.0,1.02,-1.05,9.8
6598.0,0.93,-1.0,9.8
6611.0,0.86,-0.91,9.72
6624.0,0.96,-0.83,9.62
6637.0,1.07,-0.76,9.52
6650.0,1.17,-0.74,9.56
6662.0,1.16,-0.78,9.76
6675.0,1.03,-0.82,9.96
6688.0,0.98,-0.89,10.11
6701.0,1.0,-0.95,10.25
6714.0,1.03,-0.96,10.21
6727.0,1.08,-0.9,10.04
6740.0,1.15,-0.83,9.96
6752.0,1.15,-0.82,9.82
6765.0,1.11,-0.88,9.95
6778.0,1.07,-0.84,9.98
6791.0,0.97,-0.9,10.01
6804.0,0.96,-0.96,10.09
6817.0,1.05,-0.97,10.08
6830.0,1.05,-0.95,10.04
6842.0,1.03,-0.92,9.98
6855.0,1.05,-0.93,9.98
6868.0,1.03,-0.9,10.04
6881.0,0.98,-0.88,10.04
6894.0,0.97,-0.87,10.05
6907.0,1.03,-0.88,9.97
6920.0,1.07,-0.86,9.96
6932.0,1.06,-0.87,10.03
6945.0,1.05,-0.87,10.01
6958.0,0.97,-0.91,10.07
6971.0,0.99,-0.86,10.1
6984.0,0.96,-0.82,10.07
6997.0,0.94,-0.73,10.09
7010.0,0.94,-0.69,10.09
7022.0,0.97,-0.65,10.01
7035.0,1.01,-0.66,9.96
7048.0,1.07,-0.73,9.98
7061.0,1.08,-0.81,10.01
7074.0,1.01,-0.88,10.01
7087.0,1.03,-0.9,9.97
7100.0,1.03,-0.91,9.93
7112.0,1.05,-0.86,9.93
7125.0,1.04,-0.79,9.91
7138.0,1.04,-0.73,9.89
7151.0,1.04,-0.75,9.98
7164.0,1.05,-0.84,10.02
7177.0,1.03,-0.95,10.13
7190.0,0.99,-1.02,10.17
7202.0,0.95,-1.03,10.08
7215.0,0.95,-1.01,10.02
7228.0,0.98,-0.98,9.87
7241.0,1.0,-1.04,9.78
7254.0,1.09,-1.09,9.82
7267.0,1.1,-1.14,9.9
7280.0,1.01,-1.19,9.99
7292.0,0.98,-1.22,10.05
7305.0,0.97,-1.21,10.07
7318.0,0.99,-1.15,9.99
7331.0,0.88,-1.13,9.99
7344.0,0.93,-1.07,9.92
7357.0,0.94,-1.08,9.91
7370.0,0.96,-1.15,10.02
7382.0,0.94,-1.16,10.06
7395.0,0.93,-1.17,10.08
7408.0,0.93,-1.19,10.08
7421.0,0.96,-1.17,10.01
7434.0,0.99,-1.1,9.97
7447.0,0.99,-1.03,9.91
7460.0,1.01,-0.98,9.87
7472.0,1.02,-1.0,9.86
7485.0,1.04,-1.04,9.92
7498.0,1.0,-1.11,10.1
7511.0,0.96,-1.12,10.24
7524.0,0.94,-1.12,10.32
7537.0,0.94,-1.04,10.28
7550.0,0.96,-0.98,10.16
7562.0,0.96,-0.96,10.07
7575.0,0.97,-0.92,9.9
7588.0,1.02,-0.96,9.83
7601.0,1.01,-0.96,9.87
7614.0,1.02,-0.9,9.71
7627.0,0.97,-0.88,9.75
7640.0,1.03,-0.83,9.7
7652.0,1.04,-0.89,9.85
7665.0,0.98,-0.91,9.93
7678.0,0.94,-0.93,9.98
7691.0,0.96,-0.95,10.11
7704.0,0.91,-0.92,10.03
7717.0,0.94,-0.92,9.98
7730.0,0.99,-0.91,9.95
7742.0,0.99,-0.9,9.87
7755.0,1.04,-0.96,9.97
7768.0,1.0,-0.99,10.07
7781.0,0.96,-0.99,10.07
7794.0,0.92,-0.99,10.08
7807.0,0.93,-1.03,10.04
7820.0,0.96,-1.02,10.08
7832.0,0.98,-0.99,10.06
7845.0,1.01,-0.95,10.03
7858.0,0.96,-0.96,10.09
7871.0,0.95,-0.99,10.02
7884.0,0.97,-1.03,9.98
7897.0,1.04,-1.04,9.96
7910.0,1.06,-1.04,9.93
7922.0,1.0,-0.99,9.87
7935.0,0.92,-0.92,9.84
7948.0,0.89,-0.89,9.83
7961.0,0.89,-0.9,9.9
7974.0,0.94,-0.84,9.87
7987.0,0.94,-0.85,9.94
8000.0,0.93,-0.86,10.06
8012.0,0.89,-0.88,10.11
8025.0,0.91,-0.89,10.14
8038.0,0.91,-0.9,10.09
8051.0,0.95,-0.91,10.0
8064.0,0.99,-0.94,10.01
8077.0,0.99,-0.96,9.99
8090.0,1.01,-1.02,10.01
8102.0,1.03,-1.03,10.06
8115.0,1.01,-1.03,10.05
8128.0,0.97,-1.02,10.03
8141.0,0.96,-1.05,10.03
8154.0,0.99,-1.08,10.04
8167.0,1.03,-1.11,10.05
8180.0,1.03,-1.14,10.07
8192.0,0.99,-1.11,10.06
8205.0,0.97,-1.15,10.08
8218.0,0.96,-1.15,10.09
8231.0,0.97,-1.13,10.05
8244.0,0.92,-1.11,10.08
8257.0,0.91,-1.05,10.07
8270.0,0.9,-1.03,10.07
8282.0,0.96,-1.0,10.09
8295.0,0.97,-0.97,10.05
8308.0,0.95,-1.0,10.13
8321.0,0.92,-1.0,10.16
8334.0,0.87,-0.95,10.07
8347.0,0.91,-0.87,9.89
8360.0,1.03,-0.81,9.79
8372.0,1.09,-0.78,9.64
8385.0,1.1,-0.72,9.62
8398.0,1.09,-0.69,9.66
8411.0,1.07,-0.71,9.83
8424.0,1.1,-0.75,10.02
8437.0,1.07,-0.79,10.17
8450.0,1.04,-0.84,10.29
8462.0,1.07,-0.85,10.32
8475.0,1.04,-0.81,10.2
8488.0,1.09,-0.83,10.02
8501.0,1.15,-0.83,9.88
8514.0,1.14,-0.87,9.8
8527.0,1.08,-0.9,9.75
8540.0,1.04,-0.93,9.79
8552.0,1.01,-0.95,9.85
8565.0,0.99,-0.98,9.86
8578.0,0.97,-1.01,9.98
8591.0,0.91,-1.06,10.08
8604.0,0.85,-1.11,10.17
8617.0,0.86,-1.13,10.11
8630.0,0.94,-1.16,10.12
8642.0,0.97,-1.14,10.06
8655.0,0.92,-1.12,9.99
8668.0,0.96,-1.05,9.95
8681.0,0.96,-1.06,9.96
8694.0,0.96,-1.06,10.0
8707.0,0.98,-1.02,9.99
8720.0,0.99,-1.04,10.04
8732.0,0.99,-1.03,9.99
8745.0,0.96,-1.01,9.93
8758.0,0.96,-1.0,9.89
8771.0,1.0,-0.99,9.81
8784.0,1.0,-1.0,9.85
8797.0,0.94,-0.94,9.87
8810.0,0.92,-0.96,9.92
8822.0,0.96,-1.03,10.05
8835.0,1.0,-1.08,10.15
8848.0,1.0,-1.13,10.2
8861.0,0.93,-1.17,10.2
8874.0,0.9,-1.17,10.1
8887.0,1.04,-1.11,9.97
8900.0,1.04,-1.15,9.94
8912.0,1.01,-1.13,9.91
8925.0,1.03,-1.09,10.02
8938.0,0.98,-1.03,10.0
8951.0,0.96,-1.04,9.98
8964.0,0.99,-1.05,9.96
8977.0,1.02,-0.93,9.72
8990.0,1.01,-0.84,9.41
9002.0,1.12,-0.85,9.63
9015.0,1.05,-0.96,9.94
9028.0,0.78,-1.19,10.36
9041.0,0.67,-1.3,10.53
9054.0,0.7,-1.28,10.43
9067.0,0.84,-1.18,10.12
9080.0,0.98,-1.03,9.79
9092.0,1.02,-0.97,9.62
9105.0,0.97,-1.01,9.7
9118.0,0.93,-1.15,9.94
9131.0,0.83,-1.29,10.16
9144.0,0.78,-1.33,10.24
9157.0,0.76,-1.31,10.24
9170.0,0.82,-1.22,10.03
9182.0,0.9,-1.15,9.88
9195.0,0.95,-1.1,9.81
9208.0,0.97,-1.09,9.8
9221.0,0.95,-1.15,9.89
9234.0,0.92,-1.21,10.11
9247.0,0.93,-1.27,10.1
9260.0,0.94,-1.28,10.16
9272.0,0.94,-1.28,10.12
9285.0,0.91,-1.2,10.01
9298.0,0.85,-1.07,9.91
9311.0,0.86,-0.97,9.83
9324.0,0.94,-0.97,9.86
9337.0,0.97,-1.05,10.03
9350.0,0.89,-1.08,10.17
9362.0,0.82,-1.1,10.31
9375.0,0.84,-1.09,10.26
9388.0,0.89,-1.06,10.06
9401.0,0.99,-1.03,9.86
9414.0,1.06,-0.99,9.75
9427.0,1.07,-0.93,9.66
9440.0,1.05,-0.93,9.67
9452.0,1.01,-0.97,9.78
9465.0,0.98,-0.97,9.91
9478.0,0.94,-1.02,10.06
9491.0,0.91,-1.02,10.16
9504.0,0.9,-1.05,10.18
9517.0,0.91,-1.02,10.15
9530.0,0.93,-0.99,10.08
9542.0,0.94,-1.03,10.02
9555.0,0.99,-1.15,10.08
9568.0,0.99,-1.2,10.07
9581.0,0.99,-1.23,10.01
9594.0,0.96,-1.25,10.06
9607.0,0.91,-1.22,10.26
9620.0,0.98,-1.09,10.09
9632.0,0.99,-1.07,10.1
9645.0,1.01,-1.01,10.0
9658.0,1.09,-0.95,10.0
9671.0,1.09,-0.93,9.94
9684.0,1.04,-0.88,9.86
9697.0,1.04,-0.91,9.84
9710.0,1.07,-0.93,9.8
9722.0,1.07,-0.91,9.67
9735.0,1.04,-0.91,9.65
9748.0,1.08,-0.87,9.7
9761.0,1.08,-0.83,9.74
9774.0,1.04,-0.85,9.85
9787.0,0.99,-0.88,9.96
9800.0,1.03,-0.9,10.07
9812.0,1.02,-0.93,10.11
9825.0,0.98,-1.03,10.18
9838.0,0.95,-1.09,10.21
9851.0,0.96,-1.1,10.17
9864.0,0.98,-1.1,10.09
9877.0,0.99,-1.11,10.0
9890.0,1.03,-1.07,9.95
9902.0,0.99,-1.07,9.98
9915.0,0.98,-1.05,9.97
9928.0,0.96,-1.09,10.06
9941.0,1.0,-1.13,10.03
9954.0,0.93,-1.17,10.07
9967.0,1.01,-1.11,9.93
9980.0,1.0,-1.13,9.87
9992.0,1.07,-1.06,9.86
10005.0,1.08,-1.01,9.95
10018.0,1.05,-0.93,10.05
10031.0,1.0,-0.84,10.0
10044.0,0.99,-0.79,10.0
10057.0,1.1,-0.73,9.95
10070.0,1.23,-0.68,9.89
10082.0,1.18,-0.68,9.94
10095.0,1.12,-0.62,10.09
10108.0,1.04,-0.6,10.05
10121.0,1.02,-0.63,10.07
10134.0,1.14,-0.74,10.14
10147.0,1.13,-0.78,10.13
10160.0,1.07,-0.8,10.07
10172.0,1.07,-0.83,10.01
10185.0,1.08,-0.89,9.94
10198.0,1.08,-0.98,9.83
10211.0,1.1,-1.06,9.82
10224.0,1.05,-1.08,9.85
10237.0,0.94,-1.09,9.9
10250.0,0.86,-1.1,9.88
10262.0,0.85,-1.15,9.82
10275.0,0.91,-1.2,9.8
10288.0,0.96,-1.28,9.82
10301.0,0.98,-1.31,9.88
10314.0,0.96,-1.33,10.01
10327.0,0.91,-1.26,10.02
10340.0,0.89,-1.2,10.05
10352.0,0.88,-1.1,9.98
10365.0,0.9,-0.95,9.85
10378.0,0.94,-0.8,9.82
10391.0,0.98,-0.73,9.84
10404.0,1.04,-0.69,10.01
10417.0,1.01,-0.76,10.29
10430.0,0.96,-0.81,10.43
10442.0,0.99,-0.91,10.43
10455.0,1.05,-0.96,10.32
10468.0,1.09,-0.95,10.16
10481.0,1.07,-0.93,9.94
10494.0,1.1,-0.94,9.83
10507.0,1.06,-0.98,9.83
10520.0,1.02,-1.06,9.91
10532.0,0.88,-1.07,10.0
10545.0,0.79,-1.06,10.01
10558.0,0.78,-1.1,10.06
10571.0,0.84,-1.15,10.04
10584.0,0.84,-1.16,10.04
10597.0,0.79,-1.16,9.99
10610.0,0.73,-1.16,9.97
10622.0,0.74,-1.15,9.93
10635.0,0.77,-1.18,9.86
10648.0,0.82,-1.19,9.85
10661.0,0.85,-1.21,9.82
10674.0,0.86,-1.25,9.83
10687.0,0.87,-1.32,9.9
10700.0,0.88,-1.34,10.04
10712.0,0.86,-1.23,10.12
10725.0,0.81,-1.11,10.12
10738.0,0.85,-0.96,10.05
10751.0,0.87,-0.8,9.9
10764.0,0.88,-0.74,9.83
10777.0,0.9,-0.69,9.81
10790.0,0.91,-0.72,9.89
10802.0,0.92,-0.8,10.07
10815.0,0.83,-0.83,10.25
10828.0,0.8,-0.8,10.29
10841.0,0.86,-0.87,10.31
10854.0,0.97,-0.95,10.27
10867.0,1.0,-0.95,10.18
10880.0,0.98,-0.91,10.06
10892.0,0.94,-0.85,10.02
10905.0,0.91,-0.85,9.92
10918.0,0.96,-0.91,9.92
10931.0,0.96,-0.99,9.92
10944.0,0.93,-1.06,9.94
10957.0,0.89,-1.09,9.97
10970.0,0.87,-1.15,10.03
10982.0,0.88,-1.24,10.16
10995.0,0.8,-1.24,10.2
11008.0,0.66,-1.26,10.17
11021.0,0.65,-1.21,10.15
11034.0,0.72,-1.18,10.13
11047.0,0.73,-1.1,10.04
11060.0,0.77,-1.03,9.93
11072.0,0.89,-0.94,9.86
11085.0,0.89,-0.84,9.73
11098.0,0.91,-0.73,9.7
11111.0,0.96,-0.67,9.66
11124.0,1.01,-0.64,9.68
11137.0,0.99,-0.65,9.88
11150.0,0.98,-0.7,10.01
11162.0,1.01,-0.71,10.16
11175.0,1.02,-0.68,10.19
11188.0,1.03,-0.59,10.1
11201.0,1.08,-0.52,9.95
11214.0,1.12,-0.53,9.92
11227.0,1.16,-0.58,9.91
11240.0,1.11,-0.67,10.02
11252.0,1.01,-0.73,10.11
11265.0,0.98,-0.75,10.14
11278.0,0.98,-0.8,10.17
11291.0,0.97,-0.82,10.1
11304.0,0.98,-0.85,9.99
11317.0,0.98,-0.92,9.97
11330.0,0.93,-0.95,10.01
11342.0,0.85,-0.92,10.03
11355.0,0.86,-0.93,10.05
11368.0,0.88,-1.0,10.07
11381.0,0.94,-1.02,10.09
11394.0,0.93,-1.01,10.0
11407.0,0.91,-0.99,10.06
11420.0,0.87,-0.98,10.04
11432.0,0.92,-0.9,9.95
11445.0,0.99,-0.95,9.89
11458.0,1.07,-1.02,10.0
11471.0,1.1,-1.01,9.97
11484.0,1.0,-1.01,9.91
11497.0,0.96,-0.97,9.97
11510.0,0.93,-0.93,9.98
11522.0,0.93,-0.96,9.94
11535.0,0.97,-1.0,9.99
11548.0,1.02,-0.98,9.99
11561.0,0.98,-1.05,10.06
11574.0,0.95,-1.05,10.08
11587.0,0.92,-1.01,10.09
11600.0,0.9,-0.95,10.02
11612.0,0.96,-0.92,9.89
11625.0,1.08,-0.97,9.85
11638.0,1.11,-1.05,9.87
11651.0,1.07,-1.07,9.86
11664.0,1.02,-1.05,10.02
11677.0,0.94,-1.02,10.02
11690.0,0.92,-1.01,10.04
11702.0,0.95,-1.0,9.96
11715.0,1.03,-1.02,9.95
11728.0,1.08,-1.04,9.91
11741.0,1.1,-1.03,9.87
11754.0,1.01,-1.02,9.94
11767.0,0.9,-1.02,9.9
11780.0,0.94,-1.02,9.85
11792.0,1.0,-1.05,9.94
11805.0,0.93,-1.03,10.01
11818.0,0.82,-1.0,10.1
11831.0,0.77,-0.92,10.13
11844.0,0.81,-0.96,10.14
11857.0,0.92,-0.99,10.2
11870.0,0.94,-1.02,10.15
11882.0,0.96,-0.99,10.14
11895.0,0.95,-0.9,10.0
11908.0,0.97,-0.9,9.89
11921.0,1.02,-0.93,9.91
11934.0,1.01,-0.94,9.86
11947.0,1.0,-0.97,9.87
11960.0,0.98,-1.02,9.97
11972.0,0.95,-1.04,10.04
11985.0,0.93,-1.06,10.07
11998.0,0.88,-1.05,10.08
12011.0,0.87,-1.03,10.01
12024.0,0.94,-1.01,9.9
12037.0,0.97,-1.0,9.86
12050.0,0.93,-1.03,9.92
12062.0,0.86,-1.01,9.96
12075.0,0.85,-0.99,9.95
12088.0,0.9,-1.0,9.95
12101.0,0.96,-1.0,9.91
12114.0,0.96,-0.98,9.94
12127.0,0.93,-0.94,9.94
12140.0,0.97,-0.98,9.95
12152.0,1.03,-1.0,10.05
12165.0,0.99,-1.01,10.0
12178.0,0.92,-0.99,9.99
12191.0,0.92,-1.01,10.03
12204.0,0.94,-1.08,10.14
12217.0,0.85,-1.1,10.05
12230.0,0.86,-1.08,10.0
12242.0,0.9,-1.09,9.98
12255.0,0.87,-1.07,9.89
12268.0,0.91,-1.06,9.94
12281.0,0.91,-1.11,10.05
12294.0,0.89,-1.15,10.17
12307.0,0.86,-1.15,10.19
12320.0,0.86,-1.17,10.19
12332.0,0.86,-1.15,10.08
12345.0,0.88,-1.18,9.98
12358.0,0.95,-1.14,9.86
12371.0,1.05,-1.16,9.8
12384.0,1.08,-1.19,9.79
12397.0,1.09,-1.22,9.84
12410.0,1.03,-1.24,9.97
12422.0,0.95,-1.21,10.0
12435.0,0.86,-1.15,10.04
12448.0,0.85,-1.08,10.0
12461.0,0.92,-1.08,10.01
12474.0,0.93,-1.1,10.01
12487.0,0.88,-1.11,10.03
12500.0,0.79,-1.03,9.94
12512.0,0.8,-1.0,9.93
12525.0,0.88,-0.98,9.92
12538.0,0.91,-0.93,9.93
12551.0,0.91,-0.79,9.91
12564.0,0.91,-0.69,9.96
12577.0,0.98,-0.66,10.01
12590.0,1.02,-0.65,10.03
12602.0,1.03,-0.68,10.08
12615.0,1.02,-0.75,10.18
12628.0,1.02,-0.81,10.19
12641.0,0.99,-0.86,10.12
12654.0,0.98,-0.83,10.07
12667.0,0.92,-0.82,9.97
12680.0,0.9,-0.81,9.88
12692.0,0.93,-0.85,9.88
12705.0,0.95,-0.92,9.93
12718.0,0.92,-1.02,9.99
12731.0,0.89,-1.08,10.11
12744.0,0.88,-1.11,10.14
12757.0,0.85,-1.08,10.09
12770.0,0.88,-1.08,10.01
12782.0,0.97,-1.04,9.98
12795.0,1.03,-0.95,10.08
12808.0,1.04,-0.8,10.19
12821.0,0.99,-0.69,10.29
12834.0,0.95,-0.62,10.28
12847.0,0.93,-0.61,10.2
