timestamp,accX,accY,accZ
2.0,0.11,-0.9,9.96
15.0,0.07,-0.68,8.12
28.0,0.09,-0.82,9.69
41.0,0.11,-0.83,9.94
54.0,0.1,-0.84,9.99
67.0,0.11,-0.83,10.0
79.0,0.1,-0.81,10.0
92.0,0.1,-0.83,10.01
105.0,0.1,-0.82,10.02
118.0,0.08,-0.84,10.0
131.0,0.09,-0.83,9.99
144.0,0.09,-0.82,10.0
157.0,0.11,-0.82,10.01
169.0,0.1,-0.85,10.02
182.0,0.1,-0.83,10.01
195.0,0.12,-0.84,10.01
208.0,0.1,-0.85,10.02
221.0,0.09,-0.85,10.0
234.0,0.1,-0.85,10.0
247.0,0.08,-0.83,10.04
259.0,0.08,-0.84,9.99
272.0,0.08,-0.82,10.0
285.0,0.08,-0.82,9.98
298.0,0.09,-0.82,10.01
311.0,0.09,-0.84,10.02
324.0,0.08,-0.82,10.02
337.0,0.09,-0.82,10.03
349.0,0.1,-0.82,10.0
362.0,0.08,-0.82,10.02
375.0,0.1,-0.83,10.01
388.0,0.1,-0.85,9.98
401.0,0.07,-0.84,10.01
414.0,0.08,-0.83,10.0
427.0,0.09,-0.83,10.01
439.0,0.08,-0.84,10.01
452.0,0.08,-0.85,10.01
465.0,0.09,-0.84,10.02
478.0,0.09,-0.85,10.04
491.0,0.08,-0.82,9.99
504.0,0.09,-0.82,10.01
517.0,0.08,-0.82,10.03
529.0,0.08,-0.83,10.02
542.0,0.08,-0.84,10.03
555.0,0.11,-0.84,10.02
568.0,0.1,-0.84,10.02
581.0,0.11,-0.84,10.0
594.0,0.11,-0.82,9.99
607.0,0.1,-0.83,10.01
619.0,0.11,-0.82,10.01
632.0,0.08,-0.83,10.01
645.0,0.08,-0.81,10.01
658.0,0.08,-0.83,10.01
671.0,0.09,-0.82,10.01
684.0,0.09,-0.84,10.02
697.0,0.09,-0.82,10.01
709.0,0.1,-0.82,10.0
722.0,0.08,-0.82,10.03
735.0,0.08,-0.82,10.03
748.0,0.09,-0.83,10.04
761.0,0.09,-0.84,10.0
774.0,0.1,-0.84,10.0
787.0,0.08,-0.85,10.02
799.0,0.1,-0.82,10.02
812.0,0.08,-0.83,10.01
825.0,0.09,-0.83,9.98
838.0,0.09,-0.82,10.03
851.0,0.09,-0.83,10.03
864.0,0.1,-0.84,10.02
877.0,0.11,-0.84,10.03
889.0,0.09,-0.84,10.0
902.0,0.09,-0.83,10.0
915.0,0.1,-0.83,10.02
928.0,0.08,-0.84,10.01
941.0,0.09,-0.83,9.99
954.0,0.08,-0.83,9.99
967.0,0.07,-0.85,10.01
979.0,0.08,-0.83,10.01
992.0,0.08,-0.82,10.02
1005.0,0.09,-0.83,10.03
1018.0,0.09,-0.83,10.0
1031.0,0.08,-0.83,10.0
1044.0,0.08,-0.84,10.01
1057.0,0.09,-0.84,10.02
1069.0,0.1,-0.83,10.04
1082.0,0.12,-0.85,10.01
1095.0,0.1,-0.85,10.02
1108.0,0.11,-0.83,10.02
1121.0,0.1,-0.83,10.02
1134.0,0.08,-0.82,10.04
1147.0,0.08,-0.83,10.0
1159.0,0.07,-0.84,10.01
1172.0,0.08,-0.84,10.06
1185.0,0.08,-0.82,10.01
1198.0,0.08,-0.84,9.99
1211.0,0.09,-0.83,9.99
1224.0,0.11,-0.83,10.01
1237.0,0.1,-0.83,10.01
1249.0,0.09,-0.82,10.02
1262.0,0.09,-0.81,10.02
1275.0,0.1,-0.83,9.99
1288.0,0.1,-0.82,10.01
1301.0,0.09,-0.84,10.07
1314.0,0.12,-0.83,10.01
1327.0,0.1,-0.82,9.99
1339.0,0.08,-0.82,9.98
1352.0,0.09,-0.83,10.0
1365.0,0.08,-0.84,10.01
1378.0,0.1,-0.82,9.99
1391.0,0.09,-0.82,10.0
1404.0,0.1,-0.82,10.04
1417.0,0.1,-0.83,10.0
1429.0,0.1,-0.82,10.0
1442.0,0.1,-0.82,9.97
1455.0,0.08,-0.84,10.0
1468.0,0.09,-0.83,10.0
1481.0,0.11,-0.84,9.99
1494.0,0.11,-0.84,10.0
1507.0,0.1,-0.84,10.01
1519.0,0.09,-0.82,10.03
1532.0,0.09,-0.83,10.01
1545.0,0.1,-0.82,10.01
1558.0,0.1,-0.83,9.99
1571.0,0.1,-0.84,10.02
1584.0,0.09,-0.83,10.01
1597.0,0.1,-0.83,10.01
1609.0,0.1,-0.81,10.03
1622.0,0.08,-0.82,10.0
1635.0,0.09,-0.82,9.99
1648.0,0.09,-0.84,10.0
1661.0,0.1,-0.82,10.0
1674.0,0.1,-0.84,10.0
1687.0,0.1,-0.83,9.99
1699.0,0.11,-0.82,10.0
1712.0,0.1,-0.83,10.03
1725.0,0.11,-0.84,10.0
1738.0,0.08,-0.83,9.99
1751.0,0.1,-0.82,10.01
1764.0,0.11,-0.81,10.03
1777.0,0.1,-0.82,10.04
1789.0,0.11,-0.84,10.0
1802.0,0.08,-0.84,10.01
1815.0,0.09,-0.83,10.01
1828.0,0.11,-0.82,10.0
1841.0,0.11,-0.83,10.01
1854.0,0.1,-0.83,10.03
1867.0,0.08,-0.81,10.02
1879.0,0.1,-0.82,10.01
1892.0,0.1,-0.82,10.0
1905.0,0.09,-0.84,10.03
1918.0,0.11,-0.84,10.02
1931.0,0.1,-0.82,10.01
1944.0,0.09,-0.82,10.02
1957.0,0.07,-0.82,10.02
1969.0,0.1,-0.85,10.03
1982.0,0.09,-0.82,9.99
1995.0,0.11,-0.84,10.01
2008.0,0.08,-0.83,10.0
2021.0,0.08,-0.85,10.01
2034.0,0.09,-0.83,10.0
2047.0,0.1,-0.82,10.01
2059.0,0.1,-0.82,9.99
2072.0,0.09,-0.85,10.03
2085.0,0.09,-0.82,10.02
2098.0,0.08,-0.84,10.03
2111.0,0.1,-0.83,10.0
2124.0,0.1,-0.83,10.0
2137.0,0.11,-0.82,9.99
2149.0,0.09,-0.84,9.99
2162.0,0.08,-0.84,9.99
2175.0,0.1,-0.84,10.01
2188.0,0.1,-0.83,9.99
2201.0,0.08,-0.84,10.0
2214.0,0.1,-0.85,10.02
2227.0,0.1,-0.84,10.03
2239.0,0.1,-0.81,10.0
2252.0,0.08,-0.81,10.0
2265.0,0.09,-0.81,10.03
2278.0,0.1,-0.83,10.04
2291.0,0.11,-0.83,9.99
2304.0,0.11,-0.85,10.02
2317.0,0.1,-0.85,9.96
2329.0,0.09,-0.84,9.97
2342.0,0.1,-0.85,10.01
2355.0,0.09,-0.83,10.03
2368.0,0.09,-0.84,10.01
2381.0,0.1,-0.84,10.01
2394.0,0.1,-0.83,10.03
2407.0,0.1,-0.85,10.02
2419.0,0.11,-0.83,10.01
2432.0,0.1,-0.83,10.03
2445.0,0.1,-0.83,10.01
2458.0,0.09,-0.86,10.0
2471.0,0.08,-0.83,10.04
2484.0,0.08,-0.85,9.99
2497.0,0.1,-0.84,10.03
2509.0,0.08,-0.83,10.04
2522.0,0.1,-0.85,10.02
2535.0,0.09,-0.82,10.02
2548.0,0.08,-0.84,10.01
2561.0,0.08,-0.85,10.0
2574.0,0.07,-0.84,10.01
2587.0,0.1,-0.82,10.01
2599.0,0.1,-0.83,10.01
2612.0,0.09,-0.84,10.03
2625.0,0.09,-0.85,10.01
2638.0,0.1,-0.85,10.03
2651.0,0.1,-0.83,9.99
2664.0,0.09,-0.82,10.02
2677.0,0.09,-0.84,10.0
2689.0,0.1,-0.84,10.0
2702.0,0.09,-0.84,10.02
2715.0,0.09,-0.83,10.01
2728.0,0.08,-0.82,9.99
2741.0,0.09,-0.84,10.0
2754.0,0.09,-0.85,10.01
2767.0,0.11,-0.84,10.01
2779.0,0.11,-0.84,10.01
2792.0,0.1,-0.83,9.99
2805.0,0.1,-0.83,10.01
2818.0,0.08,-0.82,10.0
2831.0,0.08,-0.83,10.01
2844.0,0.1,-0.84,9.99
2857.0,0.1,-0.82,9.98
2869.0,0.11,-0.84,10.0
2882.0,0.09,-0.85,10.0
2895.0,0.1,-0.84,9.99
2908.0,0.1,-0.82,9.97
2921.0,0.09,-0.83,9.99
2934.0,0.08,-0.83,10.0
2947.0,0.1,-0.82,10.02
2959.0,0.11,-0.83,10.02
2972.0,0.09,-0.82,10.0
2985.0,0.1,-0.82,10.0
2998.0,0.09,-0.84,10.0
3011.0,0.11,-0.84,10.02
3024.0,0.11,-0.84,10.02
3037.0,0.09,-0.83,10.03
3049.0,0.11,-0.83,10.03
3062.0,0.09,-0.84,10.04
3075.0,0.08,-0.83,10.02
3088.0,0.08,-0.84,10.02
3101.0,0.1,-0.84,10.0
3114.0,0.1,-0.83,10.01
3127.0,0.1,-0.83,10.03
3139.0,0.11,-0.83,10.02
3152.0,0.1,-0.84,10.0
3165.0,0.08,-0.83,10.01
3178.0,0.09,-0.83,10.0
3191.0,0.11,-0.84,9.99
3204.0,0.1,-0.85,10.0
3217.0,0.09,-0.86,10.02
3229.0,0.1,-0.83,10.01
3242.0,0.11,-0.82,10.01
3255.0,0.11,-0.82,10.01
3268.0,0.11,-0.82,10.01
3281.0,0.1,-0.82,10.0
3294.0,0.11,-0.83,10.02
3307.0,0.1,-0.83,10.03
3319.0,0.1,-0.84,10.02
3332.0,0.09,-0.83,10.0
3345.0,0.1,-0.84,9.99
3358.0,0.08,-0.84,10.0
3371.0,0.09,-0.83,10.02
3384.0,0.1,-0.83,10.0
3397.0,0.11,-0.83,10.0
3409.0,0.1,-0.84,9.99
3422.0,0.09,-0.84,10.01
3435.0,0.09,-0.83,10.02
3448.0,0.09,-0.83,10.04
3461.0,0.1,-0.85,10.02
3474.0,0.1,-0.84,9.99
3487.0,0.08,-0.84,10.01
3499.0,0.1,-0.85,10.02
3512.0,0.08,-0.84,9.98
3525.0,0.11,-0.83,10.02
3538.0,0.1,-0.84,10.03
3551.0,0.09,-0.82,10.02
3564.0,0.08,-0.84,9.99
3577.0,0.11,-0.84,10.02
3589.0,0.1,-0.84,10.01
3602.0,0.09,-0.83,10.01
3615.0,0.08,-0.84,10.02
3628.0,0.1,-0.83,10.0
3641.0,0.1,-0.82,9.97
3654.0,0.09,-0.85,10.02
3667.0,0.1,-0.85,10.0
3679.0,0.08,-0.84,10.01
3692.0,0.1,-0.83,10.02
3705.0,0.09,-0.83,10.02
3718.0,0.1,-0.83,10.01
3731.0,0.1,-0.82,9.99
3744.0,0.11,-0.85,9.96
3757.0,0.09,-0.82,10.01
3769.0,0.09,-0.83,10.01
3782.0,0.1,-0.82,10.02
3795.0,0.08,-0.81,10.0
3808.0,0.09,-0.81,10.0
3821.0,0.09,-0.82,10.02
3834.0,0.09,-0.83,10.02
3847.0,0.1,-0.83,10.0
3859.0,0.09,-0.83,10.0
3872.0,0.08,-0.83,10.01
3885.0,0.11,-0.82,10.0
3898.0,0.1,-0.84,10.01
3911.0,0.09,-0.84,10.02
3924.0,0.09,-0.83,10.02
3937.0,0.09,-0.84,10.01
3949.0,0.09,-0.84,10.0
3962.0,0.1,-0.84,9.99
3975.0,0.1,-0.83,9.98
3988.0,0.09,-0.85,10.01
4001.0,0.08,-0.83,10.0
4014.0,0.09,-0.83,10.02
4027.0,0.1,-0.82,10.02
4039.0,0.08,-0.85,10.02
4052.0,0.09,-0.82,9.97
4065.0,0.1,-0.81,9.98
4078.0,0.09,-0.81,10.0
4091.0,0.09,-0.83,10.01
4104.0,0.1,-0.84,10.0
4117.0,0.1,-0.85,10.03
4129.0,0.09,-0.84,10.0
4142.0,0.1,-0.84,10.02
4155.0,0.08,-0.85,9.99
4168.0,0.09,-0.83,9.99
4181.0,0.11,-0.82,9.99
4194.0,0.1,-0.85,10.03
4207.0,0.09,-0.83,10.03
4219.0,0.09,-0.85,10.02
4232.0,0.09,-0.83,10.01
4245.0,0.09,-0.84,10.04
4258.0,0.09,-0.81,10.03
4271.0,0.09,-0.83,10.04
4284.0,0.1,-0.82,10.05
4297.0,0.09,-0.84,10.01
4309.0,0.08,-0.83,9.99
4322.0,0.09,-0.83,9.99
4335.0,0.11,-0.83,9.98
4348.0,0.1,-0.82,9.99
4361.0,0.1,-0.83,10.02
4374.0,0.08,-0.86,10.0
4387.0,0.11,-0.85,10.03
4399.0,0.1,-0.82,10.0
4412.0,0.11,-0.83,10.0
4425.0,0.08,-0.84,10.01
4438.0,0.08,-0.84,10.02
4451.0,0.1,-0.85,10.0
4464.0,0.08,-0.84,10.01
4477.0,0.08,-0.84,9.99
4489.0,0.1,-0.84,10.03
4502.0,0.08,-0.84,10.01
4515.0,0.1,-0.83,10.0
4528.0,0.09,-0.83,9.99
4541.0,0.08,-0.83,10.01
4554.0,0.09,-0.83,9.98
4567.0,0.08,-0.84,10.02
4579.0,0.07,-0.83,10.03
4592.0,0.09,-0.84,10.03
4605.0,0.08,-0.83,9.99
4618.0,0.09,-0.85,10.01
4631.0,0.09,-0.84,10.01
4644.0,0.07,-0.85,10.01
4657.0,0.09,-0.82,10.01
4669.0,0.1,-0.83,10.04
4682.0,0.1,-0.83,10.01
4695.0,0.1,-0.84,10.01
4708.0,0.09,-0.82,10.0
4721.0,0.09,-0.84,10.01
4734.0,0.11,-0.85,9.99
4747.0,0.1,-0.83,10.02
4759.0,0.1,-0.82,10.0
4772.0,0.09,-0.82,10.01
4785.0,0.09,-0.84,10.02
4798.0,0.11,-0.83,9.98
4811.0,0.09,-0.82,9.98
4824.0,0.09,-0.86,10.01
4837.0,0.1,-0.83,10.0
4849.0,0.11,-0.83,10.0
4862.0,0.1,-0.82,10.0
4875.0,0.1,-0.82,10.03
4888.0,0.11,-0.84,10.03
4901.0,0.1,-0.82,10.03
4914.0,0.1,-0.82,10.01
4927.0,0.09,-0.81,10.01
4939.0,0.1,-0.84,10.02
4952.0,0.08,-0.85,10.02
4965.0,0.08,-0.83,10.0
4978.0,0.07,-0.82,10.0
4991.0,0.1,-0.83,10.01
5004.0,0.1,-0.81,9.98
5017.0,0.11,-0.85,10.0
5029.0,0.09,-0.85,10.03
5042.0,0.09,-0.81,10.04
5055.0,0.09,-0.82,10.0
5068.0,0.09,-0.83,10.03
5081.0,0.11,-0.84,10.02
5094.0,0.1,-0.83,10.01
5107.0,0.1,-0.83,10.0
5119.0,0.09,-0.84,9.99
5132.0,0.1,-0.83,10.0
5145.0,0.11,-0.83,10.0
5158.0,0.09,-0.84,10.0
5171.0,0.09,-0.85,10.03
5184.0,0.09,-0.83,10.0
5197.0,0.08,-0.83,10.01
5209.0,0.07,-0.81,9.98
5222.0,0.08,-0.83,10.02
5235.0,0.1,-0.84,10.03
5248.0,0.1,-0.82,10.02
5261.0,0.1,-0.84,10.01
5274.0,0.09,-0.84,10.01
5287.0,0.1,-0.84,10.01
5299.0,0.09,-0.82,10.04
5312.0,0.09,-0.82,10.03
5325.0,0.11,-0.81,10.0
5338.0,0.11,-0.81,10.02
5351.0,0.11,-0.82,10.02
5364.0,0.08,-0.82,10.01
5377.0,0.08,-0.84,10.04
5389.0,0.09,-0.84,10.01
5402.0,0.1,-0.84,10.01
5415.0,0.09,-0.82,10.02
5428.0,0.08,-0.85,9.99
5441.0,0.09,-0.84,9.99
5454.0,0.1,-0.83,10.0
5467.0,0.1,-0.83,10.04
5479.0,0.11,-0.8,10.0
5492.0,0.1,-0.82,9.99
5505.0,0.09,-0.82,9.99
5518.0,0.09,-0.84,10.04
5531.0,0.11,-0.84,10.02
5544.0,0.08,-0.84,10.01
5557.0,0.08,-0.85,10.01
5569.0,0.1,-0.85,10.02
5582.0,0.1,-0.85,10.01
5595.0,0.1,-0.84,10.02
5608.0,0.09,-0.83,10.01
5621.0,0.09,-0.83,10.02
5634.0,0.08,-0.82,10.01
5647.0,0.11,-0.84,10.0
5659.0,0.11,-0.8,10.02
5672.0,0.1,-0.83,9.98
5685.0,0.08,-0.84,10.0
5698.0,0.1,-0.84,9.99
5711.0,0.09,-0.83,9.99
5724.0,0.09,-0.83,10.01
5737.0,0.11,-0.85,10.01
5749.0,0.08,-0.83,10.02
5762.0,0.11,-0.84,10.03
5775.0,0.1,-0.82,9.98
5788.0,0.08,-0.84,9.99
5801.0,0.1,-0.84,10.0
5814.0,0.09,-0.82,10.03
5827.0,0.07,-0.83,10.02
5839.0,0.11,-0.83,10.02
5852.0,0.1,-0.82,10.02
5865.0,0.1,-0.84,9.99
5878.0,0.09,-0.84,10.01
5891.0,0.09,-0.83,10.02
5904.0,0.08,-0.82,10.01
5917.0,0.1,-0.84,10.03
5929.0,0.11,-0.83,10.04
5942.0,0.09,-0.84,9.99
5955.0,0.09,-0.85,10.02
5968.0,0.11,-0.83,10.0
5981.0,0.11,-0.82,10.02
5994.0,0.1,-0.83,10.01
6007.0,0.09,-0.83,10.03
6019.0,0.1,-0.84,10.0
6032.0,0.09,-0.85,9.99
6045.0,0.09,-0.83,10.01
6058.0,0.1,-0.83,10.0
6071.0,0.11,-0.83,10.01
6084.0,0.09,-0.81,10.03
6097.0,0.1,-0.83,10.02
6109.0,0.09,-0.84,10.01
6122.0,0.08,-0.83,10.0
6135.0,0.08,-0.82,10.0
6148.0,0.11,-0.84,10.01
6161.0,0.1,-0.85,10.02
6174.0,0.09,-0.83,10.01
6187.0,0.09,-0.81,10.0
6199.0,0.11,-0.83,10.01
6212.0,0.11,-0.83,10.01
6225.0,0.1,-0.82,10.03
6238.0,0.1,-0.83,10.0
6251.0,0.08,-0.82,10.0
6264.0,0.09,-0.83,10.05
6277.0,0.08,-0.83,10.01
6289.0,0.08,-0.83,9.97
6302.0,0.08,-0.83,9.99
6315.0,0.1,-0.84,10.01
6328.0,0.08,-0.83,10.0
6341.0,0.1,-0.83,10.0
6354.0,0.11,-0.84,10.02
6367.0,0.09,-0.84,10.02
6379.0,0.09,-0.82,10.03
6392.0,0.09,-0.82,10.0
6405.0,0.1,-0.83,10.02
6418.0,0.09,-0.85,10.01
6431.0,0.11,-0.83,10.02
6444.0,0.08,-0.83,10.01
6457.0,0.1,-0.83,10.04
6469.0,0.1,-0.83,10.03
6482.0,0.08,-0.83,10.03
6495.0,0.1,-0.84,9.99
6508.0,0.08,-0.84,10.0
6521.0,0.1,-0.85,10.03
6534.0,0.1,-0.82,10.01
6547.0,0.11,-0.82,10.01
6559.0,0.09,-0.84,10.01
6572.0,0.09,-0.83,10.01
6585.0,0.1,-0.83,9.97
6598.0,0.09,-0.85,10.02
6611.0,0.09,-0.83,10.03
6624.0,0.08,-0.84,10.01
6637.0,0.08,-0.83,9.98
6649.0,0.1,-0.84,9.99
6662.0,0.08,-0.83,10.0
6675.0,0.09,-0.82,10.01
6688.0,0.1,-0.83,10.02
6701.0,0.11,-0.84,10.0
6714.0,0.11,-0.82,10.0
6727.0,0.09,-0.82,10.0
6739.0,0.08,-0.83,10.0
6752.0,0.11,-0.85,10.03
6765.0,0.09,-0.84,10.01
6778.0,0.1,-0.84,10.04
6791.0,0.08,-0.83,10.01
6804.0,0.08,-0.84,10.02
6817.0,0.09,-0.84,10.01
6829.0,0.09,-0.84,10.0
6842.0,0.11,-0.84,10.01
6855.0,0.1,-0.83,10.02
6868.0,0.08,-0.84,10.02
6881.0,0.09,-0.81,10.01
6894.0,0.08,-0.83,10.03
6907.0,0.11,-0.82,10.0
6919.0,0.1,-0.82,10.02
6932.0,0.1,-0.83,9.98
6945.0,0.08,-0.83,9.99
6958.0,0.1,-0.84,10.03
6971.0,0.11,-0.84,9.99
6984.0,0.09,-0.84,10.02
6997.0,0.1,-0.83,10.01
7009.0,0.11,-0.84,10.02
7022.0,0.1,-0.82,10.01
7035.0,0.11,-0.83,10.02
7048.0,0.08,-0.83,10.02
7061.0,0.1,-0.83,10.04
7074.0,0.09,-0.83,10.02
7087.0,0.09,-0.83,10.0
7099.0,0.09,-0.82,10.01
7112.0,0.08,-0.81,9.98
7125.0,0.07,-0.82,10.01
7138.0,0.11,-0.84,9.98
7151.0,0.1,-0.83,10.03
7164.0,0.11,-0.84,10.01
7177.0,0.09,-0.81,10.0
7189.0,0.09,-0.83,9.98
7202.0,0.1,-0.84,9.98
7215.0,0.1,-0.85,10.02
7228.0,0.09,-0.85,10.0
7241.0,0.08,-0.84,9.99
7254.0,0.09,-0.83,10.0
7267.0,0.08,-0.85,10.01
7279.0,0.08,-0.82,9.98
7292.0,0.1,-0.83,10.0
7305.0,0.1,-0.82,10.01
7318.0,0.09,-0.83,10.01
7331.0,0.09,-0.82,10.01
7344.0,0.1,-0.81,10.02
7357.0,0.08,-0.84,10.01
7369.0,0.09,-0.84,10.01
7382.0,0.09,-0.82,10.01
7395.0,0.09,-0.83,10.02
7408.0,0.1,-0.81,10.01
7421.0,0.08,-0.84,10.01
7434.0,0.1,-0.84,9.98
7447.0,0.09,-0.82,10.02
7459.0,0.11,-0.83,10.02
7472.0,0.08,-0.84,10.01
7485.0,0.1,-0.83,10.01
7498.0,0.1,-0.82,10.02
7511.0,0.09,-0.82,9.99
7524.0,0.08,-0.81,9.98
7537.0,0.11,-0.83,10.01
7549.0,0.09,-0.84,9.98
7562.0,0.11,-0.83,10.0
7575.0,0.1,-0.82,10.0
7588.0,0.09,-0.84,10.0
7601.0,0.09,-0.84,10.01
7614.0,0.08,-0.82,9.98
7627.0,0.11,-0.83,10.01
7639.0,0.1,-0.84,9.98
7652.0,0.1,-0.83,10.01
7665.0,0.08,-0.82,10.01
7678.0,0.09,-0.83,10.0
7691.0,0.09,-0.83,10.03
7704.0,0.1,-0.82,10.0
7717.0,0.08,-0.84,9.99
7729.0,0.11,-0.84,10.02
7742.0,0.1,-0.82,10.03
7755.0,0.08,-0.83,10.02
7768.0,0.09,-0.83,10.01
7781.0,0.09,-0.83,10.0
7794.0,0.1,-0.84,10.0
7807.0,0.08,-0.84,9.99
7819.0,0.07,-0.83,10.0
7832.0,0.08,-0.83,10.02
7845.0,0.1,-0.82,10.0
7858.0,0.1,-0.82,10.01
7871.0,0.09,-0.83,10.01
7884.0,0.11,-0.82,10.01
7897.0,0.09,-0.83,10.03
7909.0,0.1,-0.83,10.02
7922.0,0.08,-0.82,10.01
7935.0,0.1,-0.83,9.99
7948.0,0.1,-0.83,10.0
7961.0,0.09,-0.82,10.0
7974.0,0.1,-0.84,10.01
7987.0,0.09,-0.85,10.01
7999.0,0.09,-0.84,10.04
8012.0,0.09,-0.85,10.01
8025.0,0.09,-0.83,10.0
8038.0,0.11,-0.86,10.0
8051.0,0.1,-0.84,10.02
8064.0,0.09,-0.84,9.99
8077.0,0.09,-0.84,10.02
8089.0,0.09,-0.83,10.03
8102.0,0.09,-0.83,10.03
8115.0,0.1,-0.82,10.0
8128.0,0.1,-0.82,10.0
8141.0,0.07,-0.82,10.01
8154.0,0.1,-0.85,10.04
8167.0,0.09,-0.83,10.02
8179.0,0.09,-0.84,10.0
8192.0,0.11,-0.85,10.0
8205.0,0.09,-0.84,9.99
8218.0,0.09,-0.84,9.99
8231.0,0.08,-0.84,10.01
8244.0,0.07,-0.82,10.01
8257.0,0.09,-0.83,10.03
8269.0,0.09,-0.82,10.01
8282.0,0.09,-0.82,10.01
8295.0,0.1,-0.84,10.01
8308.0,0.1,-0.83,10.02
8321.0,0.11,-0.82,10.02
8334.0,0.1,-0.83,10.01
8347.0,0.11,-0.86,9.98
8359.0,0.11,-0.84,10.0
8372.0,0.11,-0.82,10.02
8385.0,0.1,-0.82,10.0
8398.0,0.1,-0.83,9.98
8411.0,0.09,-0.84,10.0
8424.0,0.1,-0.83,10.0
8437.0,0.1,-0.84,9.99
8449.0,0.09,-0.84,10.0
8462.0,0.1,-0.83,10.0
8475.0,0.1,-0.84,9.99
8488.0,0.09,-0.85,10.01
8501.0,0.1,-0.84,10.0
8514.0,0.1,-0.85,10.01
8527.0,0.1,-0.82,10.01
8539.0,0.1,-0.83,9.98
8552.0,0.09,-0.83,10.0
8565.0,0.08,-0.83,10.02
8578.0,0.09,-0.84,10.04
8591.0,0.08,-0.84,10.01
8604.0,0.1,-0.83,9.99
8617.0,0.1,-0.83,10.01
8629.0,0.1,-0.81,10.0
8642.0,0.09,-0.84,10.01
8655.0,0.08,-0.83,10.02
8668.0,0.08,-0.81,10.03
8681.0,0.1,-0.83,10.02
8694.0,0.09,-0.84,10.0
8707.0,0.07,-0.84,9.99
8719.0,0.09,-0.81,10.02
8732.0,0.1,-0.83,10.02
8745.0,0.09,-0.84,10.02
8758.0,0.09,-0.82,10.02
8771.0,0.11,-0.81,10.02
8784.0,0.09,-0.84,10.02
8797.0,0.08,-0.83,10.01
8809.0,0.1,-0.83,9.99
8822.0,0.1,-0.85,9.99
8835.0,0.09,-0.83,9.99
8848.0,0.1,-0.83,10.03
8861.0,0.1,-0.83,10.0
8874.0,0.1,-0.82,10.0
8887.0,0.1,-0.82,10.0
8899.0,0.11,-0.85,9.99
8912.0,0.1,-0.85,10.02
8925.0,0.1,-0.83,10.01
8938.0,0.11,-0.84,9.99
8951.0,0.1,-0.86,10.01
8964.0,0.1,-0.85,10.04
8977.0,0.08,-0.83,9.99
8989.0,0.08,-0.82,9.99
9002.0,0.08,-0.82,10.0
9015.0,0.1,-0.83,9.98
9028.0,0.07,-0.83,10.01
9041.0,0.09,-0.82,10.01
9054.0,0.1,-0.83,10.0
9067.0,0.09,-0.83,10.03
9079.0,0.11,-0.82,10.03
9092.0,0.1,-0.83,10.0
9105.0,0.09,-0.83,10.0
9118.0,0.1,-0.81,10.02
9131.0,0.09,-0.83,10.0
9144.0,0.1,-0.85,10.02
9157.0,0.09,-0.85,10.01
9169.0,0.07,-0.83,10.0
9182.0,0.1,-0.83,10.03
9195.0,0.09,-0.82,10.0
9208.0,0.1,-0.81,10.0
9221.0,0.1,-0.84,10.01
9234.0,0.08,-0.84,10.02
9247.0,0.09,-0.83,10.02
9259.0,0.08,-0.85,9.99
9272.0,0.1,-0.84,10.0
9285.0,0.1,-0.85,10.02
9298.0,0.1,-0.83,10.02
9311.0,0.1,-0.83,9.98
9324.0,0.08,-0.84,9.99
9337.0,0.1,-0.84,10.0
9349.0,0.09,-0.83,10.01
9362.0,0.11,-0.83,10.02
9375.0,0.09,-0.83,10.0
9388.0,0.1,-0.84,10.0
9401.0,0.1,-0.85,10.0
9414.0,0.1,-0.85,10.03
9427.0,0.1,-0.85,9.98
9439.0,0.11,-0.84,10.0
9452.0,0.09,-0.84,9.99
9465.0,0.1,-0.85,10.02
9478.0,0.09,-0.84,10.01
9491.0,0.1,-0.84,10.02
9504.0,0.08,-0.84,10.02
9517.0,0.09,-0.84,10.01
9529.0,0.07,-0.83,9.99
9542.0,0.1,-0.82,10.0
9555.0,0.09,-0.85,10.02
9568.0,0.08,-0.84,10.02
9581.0,0.09,-0.83,9.98
9594.0,0.07,-0.84,10.0
9607.0,0.09,-0.81,10.01
9619.0,0.09,-0.82,10.01
9632.0,0.1,-0.84,10.01
9645.0,0.09,-0.85,10.0
9658.0,0.09,-0.83,10.0
9671.0,0.09,-0.84,10.02
9684.0,0.08,-0.83,10.0
9697.0,0.08,-0.83,10.01
9709.0,0.08,-0.83,10.01
9722.0,0.08,-0.82,10.0
9735.0,0.09,-0.83,10.0
9748.0,0.1,-0.82,9.99
9761.0,0.1,-0.83,10.0
9774.0,0.12,-0.82,10.03
9787.0,0.11,-0.82,10.02
9799.0,0.11,-0.82,10.02
9812.0,0.11,-0.83,10.01
9825.0,0.08,-0.82,10.02
9838.0,0.09,-0.81,10.01
9851.0,0.08,-0.83,9.97
9864.0,0.09,-0.83,9.99
9877.0,0.08,-0.84,10.06
9889.0,0.1,-0.85,10.05
9902.0,0.09,-0.84,10.01
9915.0,0.09,-0.83,9.98
9928.0,0.09,-0.84,9.98
9941.0,0.1,-0.83,9.98
9954.0,0.12,-0.84,9.99
9967.0,0.09,-0.84,10.04
9979.0,0.09,-0.82,10.05
9992.0,0.1,-0.81,9.98
10005.0,0.08,-0.84,10.02
10018.0,0.09,-0.82,9.99
10031.0,0.09,-0.83,10.02
10044.0,0.1,-0.83,10.03
10057.0,0.11,-0.81,10.02
10069.0,0.1,-0.82,10.0
10082.0,0.09,-0.83,9.97
10095.0,0.09,-0.83,9.99
10108.0,0.09,-0.84,10.0
10121.0,0.08,-0.82,9.99
10134.0,0.1,-0.84,10.02
10147.0,0.09,-0.83,10.01
10159.0,0.09,-0.83,10.01
10172.0,0.09,-0.83,10.0
10185.0,0.09,-0.85,10.0
10198.0,0.11,-0.83,10.02
10211.0,0.09,-0.83,10.01
10224.0,0.08,-0.84,10.03
10237.0,0.11,-0.84,10.0
10249.0,0.1,-0.83,10.02
10262.0,0.1,-0.83,10.01
10275.0,0.11,-0.84,10.0
10288.0,0.08,-0.82,10.02
10301.0,0.08,-0.82,9.98
10314.0,0.08,-0.83,10.02
10327.0,0.11,-0.83,10.02
10339.0,0.08,-0.83,10.02
10352.0,0.11,-0.81,10.02
10365.0,0.1,-0.83,10.0
10378.0,0.1,-0.83,10.0
10391.0,0.1,-0.83,9.97
10404.0,0.09,-0.81,10.01
10417.0,0.09,-0.82,10.01
10429.0,0.08,-0.82,10.02
10442.0,0.08,-0.82,10.02
10455.0,0.1,-0.83,10.03
10468.0,0.11,-0.82,10.01
10481.0,0.12,-0.83,10.01
10494.0,0.1,-0.84,9.99
10507.0,0.09,-0.83,10.02
10519.0,0.12,-0.84,10.02
10532.0,0.1,-0.83,9.98
10545.0,0.08,-0.84,10.01
10558.0,0.1,-0.83,10.01
10571.0,0.09,-0.84,10.02
10584.0,0.08,-0.84,10.03
10597.0,0.09,-0.82,10.02
10609.0,0.09,-0.83,10.05
10622.0,0.08,-0.82,10.01
10635.0,0.11,-0.84,10.01
10648.0,0.11,-0.82,9.99
10661.0,0.11,-0.83,10.02
10674.0,0.11,-0.84,10.0
10687.0,0.1,-0.84,10.0
10699.0,0.09,-0.85,10.0
10712.0,0.09,-0.84,10.03
10725.0,0.1,-0.84,10.01
10738.0,0.1,-0.83,10.0
10751.0,0.11,-0.85,10.03
10764.0,0.09,-0.83,10.0
10777.0,0.09,-0.82,10.0
10789.0,0.09,-0.84,10.01
10802.0,0.08,-0.84,10.01
10815.0,0.09,-0.83,10.02
10828.0,0.1,-0.82,10.01
10841.0,0.11,-0.83,9.99
10854.0,0.08,-0.84,10.03
10867.0,0.09,-0.83,10.01
10879.0,0.09,-0.82,10.01
10892.0,0.09,-0.85,9.98
10905.0,0.09,-0.83,10.01
10918.0,0.1,-0.82,10.02
10931.0,0.1,-0.83,10.02
10944.0,0.1,-0.84,10.01
10957.0,0.11,-0.83,10.01
10969.0,0.1,-0.83,10.03
10982.0,0.09,-0.84,10.0
10995.0,0.11,-0.83,10.02
11008.0,0.08,-0.83,9.99
11021.0,0.08,-0.83,9.99
11034.0,0.09,-0.82,10.02
11047.0,0.1,-0.82,10.0
11059.0,0.1,-0.83,10.01
11072.0,0.1,-0.84,10.01
11085.0,0.1,-0.85,10.01
11098.0,0.09,-0.85,10.02
11111.0,0.09,-0.84,9.99
11124.0,0.1,-0.82,10.0
11137.0,0.09,-0.82,9.98
11149.0,0.09,-0.83,10.01
11162.0,0.08,-0.85,10.01
11175.0,0.09,-0.85,10.0
11188.0,0.1,-0.83,10.0
11201.0,0.1,-0.82,10.03
11214.0,0.11,-0.83,10.02
11227.0,0.1,-0.82,10.02
11239.0,0.11,-0.84,10.01
11252.0,0.11,-0.83,10.0
11265.0,0.09,-0.84,9.99
11278.0,0.08,-0.83,10.02
11291.0,0.09,-0.83,9.99
11304.0,0.1,-0.84,10.0
11317.0,0.11,-0.85,10.02
11329.0,0.09,-0.83,9.99
11342.0,0.07,-0.82,10.01
11355.0,0.09,-0.83,10.04
11368.0,0.09,-0.83,10.02
11381.0,0.1,-0.84,10.02
11394.0,0.1,-0.82,10.02
11407.0,0.08,-0.83,9.99
11419.0,0.09,-0.84,10.02
11432.0,0.08,-0.85,10.02
11445.0,0.08,-0.82,10.02
11458.0,0.08,-0.84,10.04
11471.0,0.09,-0.84,10.03
11484.0,0.1,-0.85,10.03
11497.0,0.09,-0.85,10.01
11509.0,0.09,-0.84,10.0
11522.0,0.1,-0.83,10.02
11535.0,0.11,-0.83,10.02
11548.0,0.11,-0.83,10.01
11561.0,0.08,-0.84,10.04
11574.0,0.09,-0.83,10.02
11587.0,0.1,-0.84,10.0
11599.0,0.08,-0.83,9.99
11612.0,0.08,-0.82,9.99
11625.0,0.08,-0.82,9.99
11638.0,0.1,-0.83,10.03
11651.0,0.1,-0.82,10.02
11664.0,0.11,-0.84,10.01
11677.0,0.08,-0.83,10.02
11689.0,0.09,-0.81,10.01
11702.0,0.09,-0.82,9.99
11715.0,0.09,-0.84,9.98
11728.0,0.09,-0.82,9.98
11741.0,0.09,-0.83,9.98
11754.0,0.09,-0.82,10.01
11767.0,0.08,-0.82,10.0
11779.0,0.11,-0.84,10.02
11792.0,0.11,-0.84,10.04
11805.0,0.09,-0.85,10.02
11818.0,0.09,-0.83,10.02
11831.0,0.09,-0.82,10.02
11844.0,0.1,-0.79,10.01
11857.0,0.09,-0.84,10.03
11869.0,0.09,-0.83,9.99
11882.0,0.09,-0.82,10.0
11895.0,0.09,-0.82,10.0
11908.0,0.11,-0.81,10.01
11921.0,0.08,-0.82,10.01
11934.0,0.08,-0.83,9.98
11947.0,0.1,-0.85,10.03
11959.0,0.09,-0.82,10.0
11972.0,0.08,-0.83,10.01
11985.0,0.1,-0.83,10.02
11998.0,0.1,-0.83,10.03
12011.0,0.1,-0.84,10.02
12024.0,0.1,-0.84,9.99
12037.0,0.11,-0.84,10.01
12049.0,0.08,-0.82,10.02
12062.0,0.09,-0.84,10.01
12075.0,0.1,-0.82,10.01
12088.0,0.09,-0.84,10.01
12101.0,0.09,-0.82,9.97
12114.0,0.11,-0.83,10.03
12127.0,0.08,-0.83,10.0
12139.0,0.09,-0.82,10.0
12152.0,0.1,-0.83,9.99
12165.0,0.11,-0.84,10.0
12178.0,0.08,-0.81,10.01
12191.0,0.09,-0.85,10.0
12204.0,0.09,-0.84,9.99
12217.0,0.1,-0.84,10.02
12229.0,0.09,-0.83,10.0
12242.0,0.11,-0.83,9.99
12255.0,0.09,-0.85,10.04
12268.0,0.09,-0.84,10.01
12281.0,0.1,-0.82,10.01
12294.0,0.1,-0.84,10.02
12307.0,0.11,-0.85,10.01
12319.0,0.1,-0.84,9.99
12332.0,0.09,-0.83,10.0
12345.0,0.1,-0.84,10.03
12358.0,0.09,-0.82,10.01
12371.0,0.09,-0.83,9.98
12384.0,0.1,-0.84,10.02
12397.0,0.11,-0.84,10.02
12409.0,0.08,-0.85,10.03
12422.0,0.08,-0.83,10.0
12435.0,0.1,-0.82,10.0
12448.0,0.1,-0.81,10.0
12461.0,0.09,-0.83,10.0
12474.0,0.12,-0.82,10.01
12487.0,0.08,-0.81,10.01
12499.0,0.07,-0.83,10.01
12512.0,0.08,-0.84,10.02
12525.0,0.09,-0.84,10.0
12538.0,0.08,-0.83,10.0
12551.0,0.08,-0.82,10.02
12564.0,0.1,-0.82,10.01
12577.0,0.08,-0.82,10.03
12589.0,0.08,-0.84,10.03
12602.0,0.09,-0.83,10.04
12615.0,0.09,-0.84,10.04
12628.0,0.08,-0.83,10.0
12641.0,0.09,-0.84,9.99
12654.0,0.09,-0.84,10.01
12667.0,0.08,-0.84,10.04
12679.0,0.08,-0.84,10.04
12692.0,0.1,-0.84,10.04
12705.0,0.09,-0.85,10.04
12718.0,0.1,-0.84,10.0
12731.0,0.1,-0.82,9.99
12744.0,0.1,-0.83,9.99
12757.0,0.09,-0.82,9.98
12769.0,0.09,-0.85,10.01
12782.0,0.09,-0.81,10.01
12795.0,0.09,-0.81,10.0
12808.0,0.1,-0.82,10.0
12821.0,0.1,-0.82,10.02
12834.0,0.1,-0.82,10.01
12847.0,0.09,-0.82,10.04
