timestamp,accX,accY,accZ
2.0,-0.12,-1.32,10.09
15.0,-0.09,-1.1,8.28
28.0,-0.07,-1.33,9.92
41.0,-0.03,-1.36,10.11
54.0,0.07,-1.33,10.11
67.0,0.01,-1.24,9.93
79.0,-0.11,-1.22,9.88
92.0,-0.19,-1.24,9.83
105.0,-0.26,-1.26,9.89
118.0,-0.26,-1.28,9.87
131.0,-0.22,-1.28,9.88
144.0,-0.17,-1.29,9.86
157.0,-0.1,-1.31,9.9
170.0,-0.01,-1.31,9.97
182.0,0.07,-1.33,9.98
195.0,-0.06,-1.35,10.01
208.0,-0.14,-1.36,10.02
221.0,-0.14,-1.34,10.04
234.0,-0.14,-1.33,9.99
247.0,-0.13,-1.31,9.94
260.0,-0.12,-1.27,9.95
273.0,-0.12,-1.25,10.01
285.0,-0.17,-1.32,10.12
298.0,-0.22,-1.33,10.12
311.0,-0.21,-1.23,10.04
324.0,-0.16,-1.15,9.91
337.0,-0.17,-1.1,9.81
350.0,-0.16,-1.09,9.82
363.0,-0.13,-1.16,9.83
376.0,-0.15,-1.23,9.88
388.0,-0.25,-1.28,9.93
401.0,-0.21,-1.3,9.94
414.0,-0.11,-1.31,9.95
427.0,-0.05,-1.26,9.98
440.0,-0.08,-1.26,9.99
453.0,-0.19,-1.25,9.99
466.0,-0.14,-1.24,9.98
479.0,-0.08,-1.23,9.91
491.0,-0.16,-1.27,9.94
504.0,-0.21,-1.32,9.92
517.0,-0.21,-1.37,9.96
530.0,-0.18,-1.4,9.98
543.0,-0.17,-1.41,9.93
556.0,-0.24,-1.42,9.86
569.0,-0.26,-1.46,9.95
582.0,-0.27,-1.46,9.92
594.0,-0.34,-1.55,10.07
607.0,-0.37,-1.6,10.15
620.0,-0.3,-1.58,10.12
633.0,-0.24,-1.52,10.0
646.0,-0.2,-1.4,9.82
659.0,-0.2,-1.36,9.83
672.0,-0.13,-1.27,9.74
685.0,-0.12,-1.23,9.73
697.0,-0.16,-1.28,9.91
710.0,-0.18,-1.35,10.04
723.0,-0.21,-1.42,10.18
736.0,-0.25,-1.4,10.12
749.0,-0.27,-1.36,9.99
762.0,-0.3,-1.19,9.8
775.0,-0.31,-1.09,9.77
788.0,-0.24,-1.0,10.04
800.0,-0.05,-0.86,10.11
813.0,-0.01,-0.77,9.82
826.0,-0.41,-0.95,9.51
839.0,-0.86,-1.35,9.5
852.0,-1.01,-1.69,9.75
865.0,-0.96,-2.0,10.22
878.0,-0.9,-2.08,10.5
891.0,-0.83,-2.09,10.68
903.0,-0.55,-1.84,10.49
916.0,-0.27,-1.48,10.05
929.0,-0.12,-1.16,9.63
942.0,-0.06,-1.0,9.39
955.0,0.01,-0.93,9.46
968.0,0.15,-1.02,9.8
981.0,0.25,-1.1,10.08
993.0,0.31,-1.1,10.29
1006.0,0.42,-0.96,10.21
1019.0,0.44,-0.84,10.18
1032.0,0.45,-0.76,10.04
1045.0,0.38,-0.7,9.85
1058.0,0.13,-0.73,9.73
1071.0,-0.15,-0.86,9.61
1083.0,-0.33,-1.05,9.74
1096.0,-0.39,-1.22,9.91
1109.0,-0.34,-1.34,10.11
1122.0,-0.25,-1.38,10.18
1135.0,-0.2,-1.37,10.22
1148.0,-0.18,-1.31,10.15
1161.0,-0.19,-1.26,10.04
1174.0,-0.17,-1.25,10.01
1186.0,-0.15,-1.25,9.98
1199.0,-0.14,-1.3,10.05
1212.0,-0.05,-1.3,10.06
1225.0,0.1,-1.26,9.99
1238.0,0.15,-1.26,9.97
1251.0,0.13,-1.22,9.96
1264.0,0.22,-1.16,9.96
1277.0,0.24,-1.11,9.92
1289.0,0.21,-1.09,9.87
1302.0,0.05,-1.11,9.82
1315.0,-0.05,-1.14,9.85
1328.0,-0.09,-1.14,9.87
1341.0,-0.13,-1.15,9.88
1354.0,-0.11,-1.21,9.97
1367.0,-0.07,-1.17,9.96
1379.0,0.05,-1.15,9.93
1392.0,0.05,-1.19,10.0
1405.0,-0.01,-1.29,10.1
1418.0,-0.11,-1.38,10.15
1431.0,-0.28,-1.46,10.26
1444.0,-0.39,-1.56,10.32
1457.0,-0.38,-1.5,10.19
1470.0,-0.3,-1.37,9.98
1482.0,-0.17,-1.22,9.82
1495.0,-0.24,-1.1,9.69
1508.0,-0.31,-1.06,9.69
1521.0,-0.3,-1.12,9.83
1534.0,-0.22,-1.28,10.08
1547.0,-0.17,-1.44,10.35
1560.0,-0.09,-1.51,10.42
1573.0,0.02,-1.47,10.35
1585.0,0.14,-1.31,10.08
1598.0,0.09,-1.24,9.99
1611.0,-0.03,-1.18,9.83
1624.0,-0.07,-1.19,9.84
1637.0,-0.17,-1.18,9.79
1650.0,-0.25,-1.15,9.69
1663.0,-0.34,-1.12,9.71
1675.0,-0.33,-1.11,9.76
1688.0,-0.29,-1.09,9.8
1701.0,-0.13,-1.13,9.87
1714.0,-0.01,-1.18,9.99
1727.0,-0.03,-1.2,9.99
1740.0,-0.08,-1.25,10.09
1753.0,-0.09,-1.32,10.14
1766.0,-0.19,-1.34,10.11
1778.0,-0.21,-1.3,9.86
1791.0,-0.18,-1.28,9.65
1804.0,-0.22,-1.34,9.65
1817.0,-0.28,-1.37,9.57
1830.0,-0.44,-1.56,9.94
1843.0,-0.39,-1.54,9.97
1856.0,-0.39,-1.53,10.09
1869.0,-0.38,-1.59,10.32
1881.0,-0.43,-1.4,10.03
1894.0,-0.53,-1.33,9.98
1907.0,-0.62,-1.37,10.02
1920.0,-0.5,-1.45,10.13
1933.0,-0.39,-1.5,10.15
1946.0,-0.45,-1.5,10.03
1959.0,-0.5,-1.45,9.88
1972.0,-0.49,-1.42,9.74
1984.0,-0.43,-1.37,9.66
1997.0,-0.42,-1.31,9.64
2010.0,-0.42,-1.28,9.75
2023.0,-0.47,-1.25,9.79
2036.0,-0.45,-1.21,9.89
2049.0,-0.5,-1.15,9.9
2062.0,-0.58,-1.1,9.88
2075.0,-0.51,-1.13,9.99
2087.0,-0.48,-1.12,10.01
2100.0,-0.47,-1.17,10.09
2113.0,-0.49,-1.15,9.94
2126.0,-0.5,-1.33,10.18
2139.0,-0.47,-1.41,10.18
2152.0,-0.44,-1.43,10.07
2165.0,-0.44,-1.51,9.97
2178.0,-0.42,-1.52,9.77
2190.0,-0.49,-1.55,9.72
2203.0,-0.4,-1.57,9.72
2216.0,-0.38,-1.55,9.84
2229.0,-0.26,-1.55,9.9
2242.0,-0.13,-1.5,10.06
2255.0,-0.15,-1.51,10.21
2268.0,-0.07,-1.53,10.38
2281.0,0.07,-1.48,10.38
2293.0,0.08,-1.4,10.36
2306.0,0.08,-1.28,10.13
2319.0,0.17,-1.15,9.92
2332.0,0.21,-0.97,9.7
2345.0,0.12,-0.88,9.56
2358.0,0.09,-0.85,9.56
2371.0,0.1,-0.86,9.64
2383.0,0.01,-0.91,9.7
2396.0,-0.09,-1.03,9.82
2409.0,-0.07,-1.14,10.0
2422.0,-0.08,-1.25,10.1
2435.0,-0.18,-1.34,10.12
2448.0,-0.35,-1.38,10.11
2461.0,-0.48,-1.42,10.05
2474.0,-0.51,-1.43,10.0
2486.0,-0.52,-1.39,9.9
2499.0,-0.58,-1.33,9.8
2512.0,-0.51,-1.3,9.76
2525.0,-0.54,-1.29,9.87
2538.0,-0.65,-1.31,10.09
2551.0,-0.66,-1.27,10.18
2564.0,-0.58,-1.16,10.14
2577.0,-0.51,-1.09,10.02
2589.0,-0.38,-1.12,9.99
2602.0,-0.2,-1.23,10.07
2615.0,-0.15,-1.34,10.11
2628.0,-0.11,-1.39,10.13
2641.0,-0.14,-1.4,10.02
2654.0,-0.15,-1.29,9.82
2667.0,-0.12,-1.16,9.61
2680.0,-0.15,-1.08,9.44
2692.0,-0.34,-1.11,9.45
2705.0,-0.41,-1.22,9.64
2718.0,-0.44,-1.4,9.95
2731.0,-0.47,-1.59,10.27
2744.0,-0.52,-1.7,10.47
2757.0,-0.51,-1.71,10.43
2770.0,-0.52,-1.63,10.27
2783.0,-0.53,-1.54,10.09
2795.0,-0.43,-1.43,9.93
2808.0,-0.3,-1.33,9.83
2821.0,-0.24,-1.23,9.73
2834.0,-0.27,-1.16,9.63
2847.0,-0.29,-1.13,9.71
2860.0,-0.21,-1.15,9.76
2873.0,-0.13,-1.17,9.87
2886.0,-0.17,-1.19,9.99
2898.0,-0.14,-1.2,10.03
2911.0,-0.11,-1.2,10.02
2924.0,-0.1,-1.18,9.94
2937.0,-0.17,-1.23,9.87
2950.0,-0.2,-1.3,9.92
2963.0,-0.24,-1.35,9.89
2976.0,-0.31,-1.39,9.86
2989.0,-0.42,-1.41,9.84
3001.0,-0.45,-1.37,9.81
3014.0,-0.44,-1.4,9.89
3027.0,-0.39,-1.43,9.97
3040.0,-0.32,-1.46,10.1
3053.0,-0.31,-1.44,10.13
3066.0,-0.3,-1.42,10.14
3079.0,-0.3,-1.35,10.07
3092.0,-0.33,-1.3,9.99
3104.0,-0.44,-1.26,9.9
3117.0,-0.47,-1.27,9.9
3130.0,-0.5,-1.26,9.9
3143.0,-0.43,-1.23,9.93
3156.0,-0.42,-1.25,9.97
3169.0,-0.45,-1.21,10.0
3182.0,-0.44,-1.18,9.95
3195.0,-0.43,-1.14,9.89
3207.0,-0.44,-1.19,9.88
3220.0,-0.48,-1.31,9.95
3233.0,-0.43,-1.4,10.03
3246.0,-0.39,-1.46,10.12
3259.0,-0.4,-1.47,10.08
3272.0,-0.49,-1.43,10.09
3285.0,-0.51,-1.4,10.01
3298.0,-0.37,-1.36,10.0
3310.0,-0.28,-1.4,9.99
3323.0,-0.23,-1.42,9.96
3336.0,-0.16,-1.39,9.89
3349.0,-0.23,-1.28,9.78
3362.0,-0.3,-1.17,9.64
3375.0,-0.33,-1.08,9.54
3388.0,-0.31,-1.08,9.51
3401.0,-0.3,-1.22,9.68
3413.0,-0.25,-1.36,9.89
3426.0,-0.24,-1.43,10.07
3439.0,-0.27,-1.46,10.21
3452.0,-0.27,-1.47,10.32
3465.0,-0.16,-1.42,10.32
3478.0,-0.14,-1.36,10.2
3491.0,-0.29,-1.35,10.03
3504.0,-0.38,-1.37,9.96
3516.0,-0.48,-1.34,9.89
3529.0,-0.54,-1.31,9.87
3542.0,-0.54,-1.23,9.76
3555.0,-0.48,-1.2,9.75
3568.0,-0.37,-1.26,9.82
3581.0,-0.26,-1.33,10.03
3594.0,-0.15,-1.38,10.22
3607.0,-0.12,-1.37,10.26
3619.0,-0.21,-1.27,10.14
3632.0,-0.22,-1.2,9.9
3645.0,-0.23,-1.1,9.74
3658.0,-0.08,-1.12,9.87
3671.0,-0.1,-1.24,9.94
3684.0,-0.16,-1.3,10.0
3697.0,-0.11,-1.33,10.02
3710.0,-0.11,-1.27,9.97
3722.0,-0.06,-1.19,9.86
3735.0,-0.17,-1.18,9.81
3748.0,-0.27,-1.24,9.94
3761.0,-0.3,-1.3,10.1
3774.0,-0.33,-1.37,10.22
3787.0,-0.36,-1.35,10.25
3800.0,-0.46,-1.39,10.35
3813.0,-0.51,-1.4,10.46
3825.0,-0.44,-1.48,10.82
3838.0,-0.15,-1.52,11.01
3851.0,-0.07,-1.53,11.08
3864.0,0.04,-1.28,10.63
3877.0,0.07,-1.01,9.94
3890.0,0.04,-0.75,9.41
3903.0,-0.16,-0.62,8.95
3915.0,-0.38,-0.43,8.45
3928.0,-0.36,-0.35,8.46
3941.0,-0.3,-0.44,8.66
3954.0,-0.36,-0.61,9.08
3967.0,-0.27,-0.75,9.39
3980.0,-0.13,-0.89,9.77
3993.0,-0.01,-1.02,10.08
4006.0,-0.16,-1.19,10.34
4018.0,-0.22,-1.34,10.6
4031.0,-0.17,-1.37,10.71
4044.0,-0.19,-1.39,10.67
4057.0,-0.3,-1.3,10.49
4070.0,-0.36,-1.15,10.11
4083.0,-0.38,-1.05,9.81
4096.0,-0.33,-0.96,9.58
4109.0,-0.3,-0.94,9.51
4121.0,-0.3,-0.93,9.56
4134.0,-0.26,-0.96,9.65
4147.0,-0.21,-1.02,9.83
4160.0,-0.19,-1.09,10.02
4173.0,-0.11,-1.13,10.13
4186.0,-0.1,-1.13,10.19
4199.0,-0.13,-1.15,10.18
4212.0,-0.28,-1.18,10.21
4224.0,-0.4,-1.2,10.18
4237.0,-0.48,-1.19,10.15
4250.0,-0.49,-1.2,10.1
4263.0,-0.47,-1.25,10.11
4276.0,-0.4,-1.27,10.24
4289.0,-0.28,-1.35,10.43
4302.0,-0.3,-1.42,10.6
4315.0,-0.43,-1.53,10.71
4327.0,-0.45,-1.49,10.58
4340.0,-0.11,-1.33,10.41
4353.0,-0.05,-1.25,10.27
4366.0,-0.32,-1.05,9.62
4379.0,-0.37,-0.83,9.27
4392.0,-0.31,-0.71,8.99
4405.0,-0.42,-0.63,8.83
4418.0,-0.48,-0.63,8.91
4430.0,-0.7,-0.71,9.0
4443.0,-0.63,-0.79,9.27
4456.0,-0.19,-0.91,9.69
4469.0,0.05,-1.06,10.11
4482.0,0.23,-1.28,10.53
4495.0,0.18,-1.44,10.74
4508.0,-0.04,-1.54,10.79
4520.0,-0.21,-1.53,10.69
4533.0,-0.29,-1.46,10.48
4546.0,-0.36,-1.32,10.2
4559.0,-0.45,-1.13,9.79
4572.0,-0.6,-0.98,9.5
4585.0,-0.62,-0.91,9.48
4598.0,-0.45,-0.91,9.51
4611.0,-0.26,-1.05,9.78
4623.0,-0.12,-1.23,10.05
4636.0,-0.08,-1.33,10.21
4649.0,-0.01,-1.39,10.25
4662.0,0.0,-1.42,10.28
4675.0,-0.05,-1.37,10.14
4688.0,-0.17,-1.26,9.91
4701.0,-0.3,-1.14,9.66
4714.0,-0.4,-1.04,9.46
4726.0,-0.45,-1.03,9.48
4739.0,-0.43,-1.07,9.63
4752.0,-0.36,-1.18,9.9
4765.0,-0.34,-1.3,10.21
4778.0,-0.34,-1.37,10.39
4791.0,-0.31,-1.33,10.39
4804.0,-0.29,-1.26,10.29
4817.0,-0.27,-1.2,10.16
4829.0,-0.35,-1.24,10.02
4842.0,-0.48,-1.27,9.89
4855.0,-0.51,-1.28,9.86
4868.0,-0.48,-1.26,9.79
4881.0,-0.47,-1.26,9.74
4894.0,-0.34,-1.25,9.75
4907.0,-0.2,-1.27,9.81
4920.0,-0.18,-1.36,9.94
4932.0,-0.22,-1.41,9.99
4945.0,-0.33,-1.43,9.99
4958.0,-0.4,-1.43,9.94
4971.0,-0.42,-1.42,9.85
4984.0,-0.41,-1.47,9.88
4997.0,-0.43,-1.51,9.93
5010.0,-0.37,-1.53,10.02
5023.0,-0.27,-1.52,10.18
5035.0,-0.23,-1.41,10.25
5048.0,-0.21,-1.25,10.1
5061.0,-0.19,-1.11,9.91
5074.0,-0.17,-1.0,9.82
5087.0,-0.1,-0.92,9.68
5100.0,-0.31,-0.94,9.62
5113.0,-0.5,-1.01,9.74
5126.0,-0.54,-1.17,9.89
5138.0,-0.49,-1.21,10.02
5151.0,-0.19,-1.2,10.16
5164.0,-0.07,-1.19,10.26
5177.0,-0.31,-1.19,10.32
5190.0,-0.44,-1.25,10.44
5203.0,-0.34,-1.28,10.42
5216.0,-0.27,-1.18,10.22
5229.0,-0.36,-1.08,9.84
5241.0,-0.36,-1.0,9.59
5254.0,-0.26,-0.93,9.58
5267.0,-0.06,-0.9,9.67
5280.0,0.19,-0.88,9.72
5293.0,0.21,-0.85,9.71
5306.0,0.04,-0.84,9.66
5319.0,-0.04,-0.87,9.73
5331.0,-0.12,-1.01,9.9
5344.0,-0.12,-1.15,10.1
5357.0,-0.17,-1.28,10.23
5370.0,-0.34,-1.32,10.27
5383.0,-0.36,-1.22,9.95
5396.0,-0.22,-1.29,10.03
5409.0,-0.37,-1.3,9.93
5422.0,-0.49,-1.34,9.91
5434.0,-0.62,-1.36,9.95
5447.0,-0.56,-1.49,10.18
5460.0,-0.38,-1.54,10.29
5473.0,-0.21,-1.47,10.31
5486.0,-0.13,-1.36,10.19
5499.0,-0.15,-1.27,10.0
5512.0,-0.21,-1.28,9.91
5525.0,-0.25,-1.29,9.91
5537.0,-0.24,-1.39,10.08
5550.0,-0.01,-1.35,10.07
5563.0,0.05,-1.3,9.98
5576.0,0.01,-1.23,9.85
5589.0,-0.01,-1.17,9.76
5602.0,0.06,-1.16,9.85
5615.0,0.11,-1.19,10.01
5628.0,0.06,-1.2,10.08
5640.0,0.05,-1.11,10.03
5653.0,0.06,-1.02,9.92
5666.0,0.03,-1.01,9.83
5679.0,0.07,-1.04,9.82
5692.0,0.06,-1.11,9.86
5705.0,0.06,-1.17,9.91
5718.0,0.0,-1.23,9.93
5730.0,-0.04,-1.25,9.92
5743.0,-0.1,-1.31,9.98
5756.0,-0.18,-1.41,10.08
5769.0,-0.17,-1.39,10.12
5782.0,-0.19,-1.38,10.16
5795.0,-0.15,-1.36,10.17
5808.0,-0.18,-1.31,10.13
5821.0,-0.23,-1.3,10.08
5833.0,-0.21,-1.25,9.99
5846.0,-0.26,-1.27,9.99
5859.0,-0.29,-1.28,10.0
5872.0,-0.19,-1.21,9.89
5885.0,-0.09,-1.19,9.9
5898.0,-0.05,-1.16,9.9
5911.0,0.09,-1.17,9.99
5923.0,0.1,-1.22,10.01
5936.0,0.08,-1.27,10.03
5949.0,0.06,-1.21,9.94
5962.0,0.07,-1.16,9.81
5975.0,0.04,-1.15,9.75
5988.0,-0.03,-1.15,9.79
6001.0,-0.04,-1.18,9.87
6014.0,-0.09,-1.24,9.94
6026.0,-0.08,-1.25,9.94
6039.0,0.01,-1.24,9.93
6052.0,-0.05,-1.24,9.95
6065.0,-0.11,-1.24,10.02
6078.0,-0.16,-1.27,10.14
6091.0,-0.2,-1.33,10.21
6104.0,-0.23,-1.3,10.08
6116.0,-0.25,-1.24,9.94
6129.0,-0.19,-1.22,9.81
6142.0,-0.18,-1.19,9.75
6155.0,-0.21,-1.21,9.81
6168.0,-0.21,-1.27,9.94
6181.0,-0.06,-1.26,9.99
6194.0,-0.12,-1.25,10.05
6207.0,-0.24,-1.32,10.12
6219.0,-0.25,-1.37,10.15
6232.0,-0.2,-1.37,10.16
6245.0,-0.15,-1.39,10.19
6258.0,-0.14,-1.36,10.11
6271.0,-0.12,-1.3,9.99
6284.0,-0.08,-1.27,9.93
6297.0,-0.11,-1.25,9.85
6310.0,-0.19,-1.22,9.79
6322.0,-0.26,-1.22,9.8
6335.0,-0.3,-1.3,9.91
6348.0,-0.18,-1.35,10.04
6361.0,-0.08,-1.37,10.06
6374.0,-0.15,-1.32,9.97
6387.0,-0.25,-1.29,9.83
6400.0,-0.24,-1.26,9.81
6413.0,-0.19,-1.24,9.84
6425.0,-0.18,-1.29,9.91
6438.0,-0.12,-1.33,10.09
6451.0,-0.16,-1.34,10.11
6464.0,-0.16,-1.32,10.16
6477.0,-0.16,-1.32,10.1
6490.0,-0.15,-1.25,10.02
6503.0,-0.19,-1.18,9.87
6516.0,-0.21,-1.15,9.81
6528.0,-0.23,-1.17,9.86
6541.0,-0.27,-1.22,9.95
6554.0,-0.26,-1.3,10.07
6567.0,-0.15,-1.29,10.04
6580.0,-0.09,-1.26,9.97
6593.0,-0.17,-1.23,9.83
6606.0,-0.23,-1.24,9.75
6619.0,-0.29,-1.31,9.87
6631.0,-0.31,-1.36,9.96
6644.0,-0.29,-1.36,9.98
6657.0,-0.29,-1.34,9.93
6670.0,-0.27,-1.31,9.89
6683.0,-0.2,-1.28,9.91
6696.0,-0.13,-1.3,10.02
6709.0,-0.16,-1.33,10.14
6722.0,-0.16,-1.28,10.12
6734.0,-0.18,-1.24,10.04
6747.0,-0.18,-1.14,9.89
6760.0,-0.2,-1.12,9.83
6773.0,-0.11,-1.09,9.86
6786.0,-0.08,-1.13,9.94
6799.0,-0.11,-1.16,9.94
6812.0,-0.14,-1.17,9.9
6825.0,-0.17,-1.19,9.89
6837.0,-0.15,-1.22,9.9
6850.0,-0.12,-1.27,9.95
6863.0,-0.14,-1.34,10.04
6876.0,-0.15,-1.4,10.04
6889.0,-0.24,-1.42,9.99
6902.0,-0.23,-1.44,10.06
6915.0,-0.33,-1.47,10.1
6928.0,-0.3,-1.49,10.16
6940.0,-0.32,-1.46,10.16
6953.0,-0.34,-1.42,10.04
6966.0,-0.31,-1.34,9.91
6979.0,-0.33,-1.31,9.84
6992.0,-0.35,-1.31,9.88
7005.0,-0.27,-1.27,9.96
7018.0,-0.16,-1.27,10.0
7031.0,-0.08,-1.21,10.01
7043.0,-0.04,-1.19,9.92
7056.0,-0.04,-1.17,9.87
7069.0,-0.05,-1.17,9.85
7082.0,-0.09,-1.24,9.88
7095.0,-0.11,-1.29,10.01
7108.0,-0.08,-1.29,10.04
7121.0,-0.06,-1.26,10.01
7134.0,-0.1,-1.21,9.92
7146.0,-0.11,-1.17,9.82
7159.0,-0.15,-1.19,9.84
7172.0,-0.19,-1.22,9.9
7185.0,-0.21,-1.23,10.0
7198.0,-0.26,-1.3,10.04
7211.0,-0.24,-1.31,10.07
7224.0,-0.21,-1.34,10.07
7237.0,-0.24,-1.38,10.04
7249.0,-0.23,-1.37,10.03
7262.0,-0.23,-1.33,10.0
7275.0,-0.22,-1.31,9.94
7288.0,-0.14,-1.3,9.97
7301.0,-0.12,-1.27,10.0
7314.0,-0.09,-1.29,10.07
7327.0,-0.09,-1.28,10.05
7340.0,-0.09,-1.24,9.96
7352.0,-0.11,-1.24,10.0
7365.0,-0.11,-1.22,9.93
7378.0,-0.07,-1.21,9.92
7391.0,-0.06,-1.22,9.93
7404.0,-0.01,-1.25,10.0
7417.0,-0.0,-1.23,10.0
7430.0,-0.05,-1.24,10.02
7443.0,-0.12,-1.24,9.96
7455.0,-0.19,-1.25,9.96
7468.0,-0.19,-1.28,9.95
7481.0,-0.2,-1.25,9.86
7494.0,-0.25,-1.27,9.79
7507.0,-0.27,-1.26,9.81
7520.0,-0.19,-1.26,9.86
7533.0,-0.16,-1.29,9.99
7546.0,-0.19,-1.3,10.07
7558.0,-0.2,-1.31,10.1
7571.0,-0.21,-1.3,10.1
7584.0,-0.19,-1.29,10.04
7597.0,-0.21,-1.24,9.94
7610.0,-0.27,-1.26,9.89
7623.0,-0.2,-1.24,9.9
7636.0,-0.18,-1.23,9.91
7649.0,-0.17,-1.27,9.98
7661.0,-0.1,-1.26,9.96
7674.0,-0.05,-1.28,10.04
7687.0,-0.07,-1.28,10.0
7700.0,-0.12,-1.26,9.96
7713.0,-0.12,-1.23,9.92
7726.0,-0.12,-1.22,9.9
7739.0,-0.04,-1.21,9.93
7752.0,-0.03,-1.2,9.91
7764.0,-0.14,-1.24,9.95
7777.0,-0.15,-1.28,9.91
7790.0,-0.22,-1.29,9.91
7803.0,-0.32,-1.38,10.05
7816.0,-0.31,-1.39,10.07
7829.0,-0.35,-1.36,10.08
7842.0,-0.32,-1.33,10.04
7855.0,-0.26,-1.25,9.97
7867.0,-0.16,-1.25,9.97
7880.0,-0.14,-1.24,9.91
7893.0,-0.17,-1.24,9.87
7906.0,-0.14,-1.28,9.96
7919.0,-0.14,-1.27,10.0
7932.0,-0.21,-1.27,9.96
7945.0,-0.19,-1.29,9.99
7958.0,-0.15,-1.27,9.95
7970.0,-0.18,-1.24,9.91
7983.0,-0.16,-1.25,9.94
7996.0,-0.14,-1.23,9.93
8009.0,-0.17,-1.25,9.96
8022.0,-0.23,-1.26,9.97
8035.0,-0.23,-1.25,10.04
8048.0,-0.2,-1.29,10.12
8061.0,-0.17,-1.33,10.11
8073.0,-0.15,-1.32,9.99
8086.0,-0.16,-1.31,9.9
8099.0,-0.12,-1.3,9.85
8112.0,-0.12,-1.32,9.9
8125.0,-0.24,-1.36,9.99
8138.0,-0.26,-1.38,10.03
8151.0,-0.22,-1.31,10.01
8164.0,-0.25,-1.27,10.0
8176.0,-0.24,-1.24,10.05
8189.0,-0.15,-1.21,10.11
8202.0,-0.09,-1.2,10.07
8215.0,-0.18,-1.2,9.99
8228.0,-0.27,-1.18,9.85
8241.0,-0.34,-1.18,9.82
8254.0,-0.25,-1.18,9.8
8267.0,-0.15,-1.15,9.75
8279.0,-0.11,-1.24,9.87
8292.0,-0.07,-1.3,9.93
8305.0,0.03,-1.32,10.04
8318.0,-0.02,-1.37,9.99
8331.0,-0.08,-1.34,9.85
8344.0,-0.34,-1.44,10.01
8357.0,-0.3,-1.31,9.84
8370.0,-0.34,-1.22,9.78
8382.0,-0.4,-1.22,9.9
8395.0,-0.32,-1.24,9.99
8408.0,-0.2,-1.19,10.07
8421.0,-0.15,-1.15,10.07
8434.0,-0.22,-1.17,10.08
8447.0,-0.08,-1.21,10.14
8460.0,0.05,-1.22,10.13
8472.0,0.03,-1.2,10.09
8485.0,-0.0,-1.18,9.88
8498.0,-0.04,-1.15,9.74
8511.0,-0.15,-1.26,9.83
8524.0,-0.12,-1.33,9.87
8537.0,-0.15,-1.38,9.92
8550.0,-0.22,-1.36,9.89
8563.0,-0.21,-1.33,9.79
8575.0,-0.14,-1.33,9.88
8588.0,-0.15,-1.37,10.03
8601.0,-0.21,-1.4,10.09
8614.0,-0.29,-1.4,10.12
8627.0,-0.33,-1.41,10.11
8640.0,-0.35,-1.38,10.02
8653.0,-0.35,-1.36,10.02
8666.0,-0.25,-1.33,10.02
8678.0,-0.21,-1.31,10.02
8691.0,-0.15,-1.28,9.99
8704.0,-0.12,-1.21,9.89
8717.0,-0.14,-1.16,9.82
8730.0,-0.17,-1.17,9.83
8743.0,-0.2,-1.22,9.86
8756.0,-0.17,-1.31,10.02
8769.0,-0.21,-1.38,10.12
8781.0,-0.21,-1.36,10.15
8794.0,-0.14,-1.33,10.07
8807.0,-0.07,-1.27,10.01
8820.0,-0.06,-1.26,10.04
8833.0,-0.05,-1.24,9.96
8846.0,-0.09,-1.22,9.88
8859.0,-0.17,-1.22,9.79
8872.0,-0.22,-1.24,9.81
8884.0,-0.2,-1.26,9.84
8897.0,-0.22,-1.34,9.94
8910.0,-0.2,-1.36,10.1
8923.0,-0.1,-1.37,10.13
8936.0,-0.04,-1.3,10.14
8949.0,-0.03,-1.22,10.01
8962.0,-0.07,-1.13,9.89
8975.0,-0.12,-1.12,9.82
8987.0,-0.14,-1.22,9.91
9000.0,-0.12,-1.27,9.93
9013.0,-0.12,-1.29,9.93
9026.0,-0.16,-1.3,9.9
9039.0,-0.2,-1.34,10.0
9052.0,-0.18,-1.39,10.09
9065.0,-0.19,-1.43,10.15
9078.0,-0.23,-1.44,10.19
9090.0,-0.17,-1.37,10.08
9103.0,-0.27,-1.27,9.94
9116.0,-0.33,-1.26,9.88
9129.0,-0.33,-1.25,9.83
9142.0,-0.28,-1.27,9.83
9155.0,-0.27,-1.32,9.9
9168.0,-0.27,-1.39,9.99
9181.0,-0.2,-1.39,10.03
9193.0,-0.12,-1.38,10.02
9206.0,-0.14,-1.33,9.97
9219.0,-0.18,-1.34,9.97
9232.0,-0.14,-1.32,9.93
9245.0,-0.12,-1.31,9.87
9258.0,-0.13,-1.28,9.83
9271.0,-0.17,-1.24,9.78
9284.0,-0.18,-1.23,9.83
9296.0,-0.16,-1.27,9.96
9309.0,-0.11,-1.31,10.09
9322.0,-0.13,-1.37,10.13
9335.0,-0.14,-1.35,10.1
9348.0,-0.16,-1.31,10.01
9361.0,-0.17,-1.29,9.94
9374.0,-0.22,-1.33,9.96
9387.0,-0.22,-1.36,9.99
9399.0,-0.18,-1.36,10.0
9412.0,-0.2,-1.34,9.93
9425.0,-0.2,-1.29,9.93
9438.0,-0.23,-1.27,9.93
9451.0,-0.3,-1.35,10.1
9464.0,-0.17,-1.35,10.25
9477.0,-0.2,-1.37,10.27
9490.0,-0.26,-1.34,10.06
9502.0,-0.15,-1.22,9.85
9515.0,-0.13,-1.16,9.76
9528.0,-0.27,-1.19,9.72
9541.0,-0.26,-1.2,9.71
9554.0,-0.18,-1.23,9.72
9567.0,-0.09,-1.21,9.77
9580.0,-0.06,-1.2,9.82
9593.0,-0.11,-1.22,9.94
9605.0,-0.14,-1.26,10.03
9618.0,-0.14,-1.3,10.12
9631.0,-0.16,-1.3,10.09
9644.0,-0.23,-1.28,9.99
9657.0,-0.21,-1.27,9.95
9670.0,-0.24,-1.28,9.93
9683.0,-0.29,-1.28,9.88
9696.0,-0.28,-1.29,9.88
9708.0,-0.29,-1.31,9.86
9721.0,-0.23,-1.34,9.94
9734.0,-0.18,-1.39,10.0
9747.0,-0.07,-1.34,9.98
9760.0,-0.08,-1.35,9.99
9773.0,-0.15,-1.4,10.04
9786.0,-0.17,-1.41,10.05
9799.0,-0.17,-1.39,10.02
9811.0,-0.23,-1.36,9.98
9824.0,-0.23,-1.3,9.91
9837.0,-0.19,-1.22,9.83
9850.0,-0.14,-1.17,9.8
9863.0,-0.11,-1.2,9.87
9876.0,-0.2,-1.28,10.06
9889.0,-0.25,-1.35,10.21
9902.0,-0.22,-1.33,10.18
9914.0,-0.21,-1.16,9.85
9927.0,-0.26,-1.21,9.85
9940.0,-0.24,-1.26,9.85
9953.0,-0.22,-1.3,9.93
9966.0,-0.21,-1.36,9.97
9979.0,-0.23,-1.36,9.99
9992.0,-0.22,-1.39,9.96
10005.0,-0.17,-1.44,10.04
10017.0,-0.2,-1.5,10.18
10030.0,-0.18,-1.53,10.17
10043.0,-0.21,-1.49,10.07
10056.0,-0.26,-1.43,9.93
10069.0,-0.28,-1.33,9.77
10082.0,-0.25,-1.3,9.73
10095.0,-0.23,-1.3,9.76
10108.0,-0.25,-1.29,9.81
10120.0,-0.2,-1.26,9.87
10133.0,-0.21,-1.26,9.91
10146.0,-0.21,-1.28,9.99
10159.0,-0.17,-1.3,10.06
10172.0,-0.14,-1.29,10.01
10185.0,-0.14,-1.25,9.9
10198.0,-0.14,-1.21,9.86
10211.0,-0.15,-1.22,9.88
10223.0,-0.18,-1.29,9.97
10236.0,-0.2,-1.36,10.07
10249.0,-0.24,-1.39,10.11
10262.0,-0.24,-1.39,10.09
10275.0,-0.25,-1.37,10.05
10288.0,-0.19,-1.36,10.0
10301.0,-0.24,-1.33,9.86
10314.0,-0.31,-1.29,9.82
10326.0,-0.28,-1.27,9.79
10339.0,-0.21,-1.24,9.87
10352.0,-0.23,-1.24,9.92
10365.0,-0.24,-1.25,9.95
10378.0,-0.22,-1.25,9.98
10391.0,-0.19,-1.27,10.09
10404.0,-0.19,-1.29,10.05
10417.0,-0.2,-1.3,10.01
10429.0,-0.17,-1.31,10.04
10442.0,-0.18,-1.33,10.02
10455.0,-0.2,-1.36,9.99
10468.0,-0.22,-1.35,9.95
10481.0,-0.21,-1.3,9.88
10494.0,-0.25,-1.3,9.83
10507.0,-0.26,-1.29,9.78
10520.0,-0.23,-1.32,9.83
10532.0,-0.16,-1.32,9.87
10545.0,-0.15,-1.32,9.96
10558.0,-0.18,-1.34,10.01
10571.0,-0.17,-1.35,10.06
10584.0,-0.16,-1.36,10.09
10597.0,-0.09,-1.3,10.04
10610.0,-0.15,-1.29,9.96
10623.0,-0.22,-1.29,9.89
10635.0,-0.24,-1.28,9.85
10648.0,-0.33,-1.29,9.84
10661.0,-0.29,-1.32,9.89
10674.0,-0.25,-1.32,9.9
10687.0,-0.25,-1.32,9.94
10700.0,-0.28,-1.29,9.92
10713.0,-0.23,-1.26,9.93
10726.0,-0.23,-1.3,10.01
10738.0,-0.25,-1.36,10.14
10751.0,-0.15,-1.41,10.24
10764.0,-0.11,-1.4,10.25
10777.0,-0.14,-1.4,10.23
10790.0,-0.17,-1.35,10.11
10803.0,-0.19,-1.32,9.98
10816.0,-0.25,-1.26,9.79
10829.0,-0.3,-1.22,9.65
10841.0,-0.23,-1.2,9.61
10854.0,-0.18,-1.2,9.69
10867.0,-0.17,-1.25,9.83
10880.0,-0.15,-1.31,10.0
10893.0,-0.12,-1.37,10.07
10906.0,-0.08,-1.39,10.1
10919.0,-0.09,-1.39,10.04
10932.0,-0.15,-1.36,10.0
10944.0,-0.16,-1.35,10.0
10957.0,-0.21,-1.35,10.0
10970.0,-0.31,-1.32,9.96
10983.0,-0.35,-1.29,9.87
10996.0,-0.38,-1.29,9.84
11009.0,-0.28,-1.25,9.83
11022.0,-0.22,-1.26,9.85
11035.0,-0.23,-1.1,9.58
11047.0,-0.31,-1.35,10.06
11060.0,-0.18,-1.45,10.25
11073.0,-0.16,-1.47,10.28
11086.0,-0.21,-1.43,10.13
11099.0,-0.27,-1.37,9.95
11112.0,-0.23,-1.33,9.86
11125.0,-0.18,-1.33,9.93
11138.0,-0.22,-1.38,10.0
11150.0,-0.27,-1.38,9.99
11163.0,-0.28,-1.39,9.97
11176.0,-0.18,-1.4,10.04
11189.0,-0.08,-1.36,10.03
11202.0,-0.11,-1.31,9.97
11215.0,-0.2,-1.28,9.94
11228.0,-0.24,-1.23,9.87
11241.0,-0.28,-1.22,9.94
11253.0,-0.27,-1.25,9.93
11266.0,-0.26,-1.26,9.91
11279.0,-0.25,-1.24,9.9
11292.0,-0.16,-1.22,9.86
11305.0,-0.12,-1.19,9.86
11318.0,-0.2,-1.23,9.89
11331.0,-0.21,-1.27,9.97
11344.0,-0.18,-1.37,10.09
11356.0,-0.14,-1.38,10.13
11369.0,-0.2,-1.33,10.01
11382.0,-0.22,-1.28,9.85
11395.0,-0.24,-1.23,9.73
11408.0,-0.22,-1.24,9.74
11421.0,-0.23,-1.28,9.84
11434.0,-0.26,-1.33,9.95
11447.0,-0.3,-1.34,10.0
11459.0,-0.31,-1.36,10.07
11472.0,-0.25,-1.34,10.1
11485.0,-0.19,-1.33,10.05
11498.0,-0.17,-1.28,9.97
11511.0,-0.18,-1.24,9.88
11524.0,-0.17,-1.22,9.78
11537.0,-0.17,-1.21,9.78
11550.0,-0.2,-1.26,9.82
11562.0,-0.17,-1.34,9.89
11575.0,-0.18,-1.39,9.98
11588.0,-0.21,-1.41,10.04
11601.0,-0.23,-1.41,10.06
11614.0,-0.25,-1.34,10.06
11627.0,-0.22,-1.3,10.03
11640.0,-0.22,-1.22,10.04
11653.0,-0.27,-1.21,9.97
11665.0,-0.26,-1.21,9.99
11678.0,-0.27,-1.24,9.98
11691.0,-0.25,-1.27,9.98
11704.0,-0.23,-1.31,10.03
11717.0,-0.22,-1.36,10.04
11730.0,-0.18,-1.38,10.02
11743.0,-0.1,-1.38,9.96
11756.0,-0.11,-1.36,9.91
11768.0,-0.15,-1.38,9.91
11781.0,-0.12,-1.38,9.89
11794.0,-0.13,-1.36,9.88
11807.0,-0.2,-1.32,9.84
11820.0,-0.2,-1.29,9.81
11833.0,-0.25,-1.27,9.82
11846.0,-0.25,-1.32,9.95
11859.0,-0.21,-1.35,10.03
11871.0,-0.18,-1.37,10.07
11884.0,-0.23,-1.4,10.08
11897.0,-0.25,-1.4,10.06
11910.0,-0.3,-1.4,10.07
11923.0,-0.36,-1.37,10.02
11936.0,-0.36,-1.34,9.93
11949.0,-0.38,-1.33,9.87
11962.0,-0.3,-1.31,9.87
11974.0,-0.25,-1.3,9.97
11987.0,-0.19,-1.36,10.07
12000.0,-0.14,-1.33,10.08
12013.0,-0.14,-1.28,9.99
12026.0,-0.17,-1.24,9.88
12039.0,-0.17,-1.19,9.82
12052.0,-0.13,-1.23,9.8
12065.0,-0.17,-1.27,9.84
12077.0,-0.15,-1.26,9.85
12090.0,-0.19,-1.29,9.91
12103.0,-0.15,-1.34,10.01
12116.0,-0.15,-1.34,10.06
12129.0,-0.14,-1.35,10.04
12142.0,-0.24,-1.35,9.96
12155.0,-0.23,-1.33,9.91
12168.0,-0.26,-1.35,9.92
12180.0,-0.32,-1.37,9.89
12193.0,-0.31,-1.38,9.9
12206.0,-0.3,-1.36,9.95
12219.0,-0.28,-1.36,9.97
12232.0,-0.29,-1.39,10.01
12245.0,-0.3,-1.41,10.06
12258.0,-0.27,-1.41,10.1
12271.0,-0.25,-1.39,10.07
12283.0,-0.24,-1.35,10.01
12296.0,-0.19,-1.32,9.92
12309.0,-0.2,-1.28,9.87
12322.0,-0.19,-1.27,9.83
12335.0,-0.22,-1.31,9.91
12348.0,-0.19,-1.31,9.9
12361.0,-0.16,-1.3,9.9
12374.0,-0.18,-1.3,9.9
12386.0,-0.19,-1.31,9.91
12399.0,-0.19,-1.32,9.96
12412.0,-0.17,-1.31,9.98
12425.0,-0.24,-1.33,10.03
12438.0,-0.25,-1.35,10.05
12451.0,-0.21,-1.32,9.98
12464.0,-0.19,-1.29,9.9
12477.0,-0.27,-1.3,9.88
12489.0,-0.28,-1.35,9.93
12502.0,-0.27,-1.37,10.01
12515.0,-0.27,-1.39,10.0
12528.0,-0.24,-1.43,10.05
12541.0,-0.21,-1.36,9.93
12554.0,-0.22,-1.33,9.9
12567.0,-0.24,-1.32,9.88
12580.0,-0.27,-1.36,9.88
12592.0,-0.26,-1.4,10.01
12605.0,-0.27,-1.39,9.99
12618.0,-0.27,-1.37,10.02
12631.0,-0.29,-1.36,9.98
12644.0,-0.26,-1.37,10.05
12657.0,-0.18,-1.36,10.06
12670.0,-0.16,-1.32,10.02
12683.0,-0.24,-1.3,9.92
12695.0,-0.24,-1.26,9.88
12708.0,-0.21,-1.25,9.83
12721.0,-0.22,-1.29,9.84
12734.0,-0.22,-1.32,9.85
12747.0,-0.2,-1.33,9.93
12760.0,-0.13,-1.32,9.94
12773.0,-0.15,-1.33,9.91
12786.0,-0.17,-1.35,9.96
12798.0,-0.18,-1.34,10.02
12811.0,-0.21,-1.38,10.07
12824.0,-0.25,-1.37,10.05
12837.0,-0.29,-1.38,10.03
12850.0,-0.3,-1.38,9.94
12863.0,-0.3,-1.39,9.89
