timestamp,accX,accY,accZ
2.0,0.34,-0.57,9.96
15.0,0.31,-0.47,8.13
28.0,0.37,-0.55,9.72
41.0,0.38,-0.57,9.97
54.0,0.39,-0.55,10.05
66.0,0.38,-0.56,10.03
79.0,0.38,-0.55,10.04
92.0,0.39,-0.56,10.06
105.0,0.38,-0.58,10.04
118.0,0.38,-0.56,10.04
131.0,0.37,-0.56,10.03
144.0,0.39,-0.57,10.04
157.0,0.38,-0.57,10.04
169.0,0.37,-0.56,10.06
182.0,0.38,-0.58,10.02
195.0,0.4,-0.57,10.03
208.0,0.38,-0.55,10.03
221.0,0.38,-0.55,10.05
234.0,0.4,-0.57,10.07
247.0,0.39,-0.55,10.07
259.0,0.39,-0.56,10.04
272.0,0.39,-0.55,10.04
285.0,0.39,-0.56,10.04
298.0,0.39,-0.55,10.01
311.0,0.38,-0.57,10.02
324.0,0.38,-0.57,10.03
337.0,0.39,-0.54,10.04
349.0,0.39,-0.55,10.03
362.0,0.37,-0.54,10.02
375.0,0.38,-0.56,10.06
388.0,0.38,-0.54,10.06
401.0,0.39,-0.54,10.04
414.0,0.36,-0.55,10.04
427.0,0.35,-0.56,10.02
439.0,0.37,-0.57,10.02
452.0,0.38,-0.55,10.04
465.0,0.39,-0.57,10.04
478.0,0.38,-0.57,10.03
491.0,0.38,-0.59,10.05
504.0,0.39,-0.56,10.04
517.0,0.39,-0.55,10.05
529.0,0.39,-0.54,10.03
542.0,0.4,-0.56,10.07
555.0,0.38,-0.55,10.06
568.0,0.37,-0.55,10.04
581.0,0.38,-0.56,10.02
594.0,0.37,-0.55,10.06
607.0,0.4,-0.55,10.06
619.0,0.39,-0.56,10.07
632.0,0.4,-0.56,10.04
645.0,0.37,-0.56,10.02
658.0,0.37,-0.55,10.03
671.0,0.37,-0.55,10.03
684.0,0.39,-0.55,10.05
697.0,0.4,-0.54,10.03
709.0,0.4,-0.55,10.04
722.0,0.39,-0.56,10.05
735.0,0.39,-0.57,10.06
748.0,0.39,-0.59,10.02
761.0,0.39,-0.56,10.03
774.0,0.39,-0.56,10.07
787.0,0.38,-0.57,10.06
799.0,0.4,-0.55,10.03
812.0,0.4,-0.55,10.04
825.0,0.38,-0.55,10.07
838.0,0.39,-0.56,10.02
851.0,0.38,-0.57,10.06
864.0,0.4,-0.55,10.04
877.0,0.4,-0.57,10.02
889.0,0.38,-0.56,10.04
902.0,0.38,-0.55,10.06
915.0,0.37,-0.55,10.04
928.0,0.37,-0.55,10.02
941.0,0.38,-0.56,10.01
954.0,0.39,-0.57,10.06
967.0,0.38,-0.56,10.03
979.0,0.38,-0.55,10.04
992.0,0.38,-0.55,10.09
1005.0,0.41,-0.56,10.02
1018.0,0.39,-0.56,10.05
1031.0,0.4,-0.57,10.05
1044.0,0.39,-0.57,10.03
1057.0,0.38,-0.55,10.04
1069.0,0.4,-0.55,10.06
1082.0,0.39,-0.55,10.06
1095.0,0.4,-0.57,10.04
1108.0,0.39,-0.55,10.01
1121.0,0.38,-0.55,10.03
1134.0,0.38,-0.57,10.04
1147.0,0.39,-0.55,10.04
1159.0,0.37,-0.55,10.05
1172.0,0.36,-0.56,10.03
1185.0,0.37,-0.56,10.02
1198.0,0.37,-0.56,10.04
1211.0,0.39,-0.57,10.04
1224.0,0.39,-0.56,10.06
1237.0,0.39,-0.57,10.03
1249.0,0.39,-0.57,10.04
1262.0,0.4,-0.56,10.06
1275.0,0.38,-0.56,10.06
1288.0,0.38,-0.55,10.05
1301.0,0.36,-0.55,10.05
1314.0,0.39,-0.54,10.04
1327.0,0.4,-0.57,10.05
1339.0,0.39,-0.55,10.05
1352.0,0.4,-0.58,10.01
1365.0,0.37,-0.58,10.06
1378.0,0.4,-0.56,10.04
1391.0,0.42,-0.57,10.05
1404.0,0.39,-0.56,10.04
1417.0,0.41,-0.56,10.06
1429.0,0.37,-0.55,10.05
1442.0,0.35,-0.56,10.04
1455.0,0.36,-0.56,10.07
1468.0,0.4,-0.56,10.06
1481.0,0.37,-0.56,10.03
1494.0,0.36,-0.58,10.05
1507.0,0.38,-0.56,10.06
1519.0,0.38,-0.55,10.04
1532.0,0.39,-0.56,10.06
1545.0,0.38,-0.57,10.04
1558.0,0.39,-0.56,10.05
1571.0,0.37,-0.55,10.06
1584.0,0.38,-0.57,10.05
1597.0,0.4,-0.54,10.04
1609.0,0.37,-0.54,10.04
1622.0,0.39,-0.57,10.06
1635.0,0.4,-0.55,10.04
1648.0,0.38,-0.55,10.01
1661.0,0.4,-0.54,10.04
1674.0,0.38,-0.55,10.06
1687.0,0.4,-0.55,10.01
1699.0,0.38,-0.56,10.05
1712.0,0.38,-0.56,10.07
1725.0,0.39,-0.56,10.04
1738.0,0.38,-0.55,10.01
1751.0,0.39,-0.56,10.07
1764.0,0.37,-0.56,10.06
1777.0,0.38,-0.55,10.07
1789.0,0.37,-0.56,10.04
1802.0,0.38,-0.57,10.06
1815.0,0.38,-0.57,10.05
1828.0,0.38,-0.56,10.06
1841.0,0.39,-0.57,10.06
1854.0,0.37,-0.57,10.05
1867.0,0.37,-0.57,10.02
1879.0,0.39,-0.57,10.02
1892.0,0.38,-0.56,10.01
1905.0,0.38,-0.56,10.05
1918.0,0.37,-0.54,10.05
1931.0,0.4,-0.54,10.03
1944.0,0.37,-0.54,10.04
1957.0,0.37,-0.56,10.05
1969.0,0.38,-0.55,10.04
1982.0,0.4,-0.57,10.06
1995.0,0.39,-0.58,10.05
2008.0,0.39,-0.57,10.07
2021.0,0.38,-0.55,10.04
2034.0,0.37,-0.55,10.04
2047.0,0.34,-0.57,9.95
2059.0,0.43,-0.58,9.95
2072.0,0.43,-0.57,10.21
2085.0,0.41,-0.57,10.18
2098.0,0.37,-0.55,9.96
2111.0,0.37,-0.53,10.02
2124.0,0.37,-0.57,10.07
2137.0,0.4,-0.6,10.05
2149.0,0.4,-0.57,10.08
2162.0,0.4,-0.56,10.07
2175.0,0.39,-0.54,10.03
2188.0,0.38,-0.54,10.0
2201.0,0.38,-0.55,10.03
2214.0,0.36,-0.56,10.04
2227.0,0.38,-0.56,10.08
2239.0,0.39,-0.56,10.05
2252.0,0.41,-0.57,10.06
2265.0,0.39,-0.56,10.07
2278.0,0.41,-0.57,10.06
2291.0,0.39,-0.59,10.01
2304.0,0.39,-0.57,10.09
2317.0,0.39,-0.57,10.08
2329.0,0.37,-0.57,10.04
2342.0,0.38,-0.55,10.04
2355.0,0.36,-0.57,10.06
2368.0,0.37,-0.56,10.05
2381.0,0.38,-0.57,10.04
2394.0,0.38,-0.57,10.03
2407.0,0.4,-0.57,10.03
2419.0,0.4,-0.55,10.03
2432.0,0.37,-0.55,10.02
2445.0,0.36,-0.55,10.01
2458.0,0.38,-0.56,10.05
2471.0,0.37,-0.55,10.07
2484.0,0.38,-0.55,10.06
2497.0,0.38,-0.55,10.02
2509.0,0.38,-0.56,10.02
2522.0,0.37,-0.54,10.04
2535.0,0.37,-0.56,10.02
2548.0,0.37,-0.56,10.05
2561.0,0.37,-0.55,10.03
2574.0,0.38,-0.56,10.03
2587.0,0.38,-0.56,10.02
2599.0,0.4,-0.55,10.03
2612.0,0.38,-0.54,10.04
2625.0,0.39,-0.55,10.06
2638.0,0.4,-0.55,10.04
2651.0,0.39,-0.55,10.04
2664.0,0.4,-0.55,10.05
2677.0,0.39,-0.57,10.04
2689.0,0.37,-0.57,10.04
2702.0,0.38,-0.56,10.03
2715.0,0.39,-0.56,10.03
2728.0,0.39,-0.56,10.04
2741.0,0.37,-0.56,10.02
2754.0,0.37,-0.55,10.04
2767.0,0.39,-0.55,10.03
2779.0,0.39,-0.57,10.05
2792.0,0.39,-0.57,10.03
2805.0,0.39,-0.57,10.05
2818.0,0.36,-0.58,10.06
2831.0,0.39,-0.54,10.07
2844.0,0.34,-0.56,10.0
2857.0,0.39,-0.58,9.98
2869.0,0.41,-0.56,10.15
2882.0,0.4,-0.57,10.13
2895.0,0.38,-0.55,10.01
2908.0,0.38,-0.53,10.05
2921.0,0.37,-0.56,10.06
2934.0,0.37,-0.58,10.06
2947.0,0.39,-0.56,10.09
2959.0,0.4,-0.55,10.06
2972.0,0.38,-0.57,10.03
2985.0,0.38,-0.55,10.07
2998.0,0.37,-0.54,10.06
3011.0,0.35,-0.58,10.02
3024.0,0.37,-0.57,10.07
3037.0,0.37,-0.57,10.04
3049.0,0.38,-0.58,10.05
3062.0,0.38,-0.56,10.05
3075.0,0.37,-0.55,10.02
3088.0,0.36,-0.56,10.02
3101.0,0.39,-0.55,10.04
3114.0,0.41,-0.56,10.03
3127.0,0.41,-0.58,10.03
3139.0,0.38,-0.58,10.04
3152.0,0.36,-0.56,10.03
3165.0,0.38,-0.56,10.04
3178.0,0.37,-0.54,10.06
3191.0,0.39,-0.57,10.07
3204.0,0.38,-0.57,10.07
3217.0,0.39,-0.56,10.07
3229.0,0.4,-0.55,10.05
3242.0,0.39,-0.55,10.05
3255.0,0.38,-0.54,10.06
3268.0,0.37,-0.56,10.06
3281.0,0.4,-0.56,10.04
3294.0,0.38,-0.53,10.05
3307.0,0.36,-0.55,10.04
3319.0,0.38,-0.56,10.07
3332.0,0.38,-0.56,10.05
3345.0,0.38,-0.55,10.05
3358.0,0.37,-0.56,10.04
3371.0,0.4,-0.58,10.05
3384.0,0.4,-0.56,10.06
3397.0,0.39,-0.57,10.04
3409.0,0.4,-0.58,10.02
3422.0,0.38,-0.54,10.04
3435.0,0.38,-0.55,10.04
3448.0,0.39,-0.57,10.07
3461.0,0.38,-0.57,10.05
3474.0,0.38,-0.56,10.06
3487.0,0.38,-0.57,10.04
3499.0,0.37,-0.56,10.07
3512.0,0.38,-0.55,10.06
3525.0,0.38,-0.56,10.06
3538.0,0.37,-0.54,10.04
3551.0,0.37,-0.54,10.02
3564.0,0.38,-0.55,10.06
3577.0,0.38,-0.57,10.05
3589.0,0.39,-0.57,10.04
3602.0,0.36,-0.57,10.04
3615.0,0.37,-0.55,10.07
3628.0,0.32,-0.57,9.99
3641.0,0.42,-0.59,9.95
3654.0,0.44,-0.57,10.25
3667.0,0.41,-0.58,10.17
3679.0,0.34,-0.54,9.97
3692.0,0.36,-0.52,10.0
3705.0,0.35,-0.54,10.02
3718.0,0.41,-0.59,10.02
3731.0,0.42,-0.55,10.11
3744.0,0.41,-0.56,10.09
3757.0,0.4,-0.58,10.04
3769.0,0.38,-0.53,10.02
3782.0,0.37,-0.54,10.01
3795.0,0.38,-0.56,10.04
3808.0,0.41,-0.57,10.09
3821.0,0.39,-0.54,10.08
3834.0,0.38,-0.56,10.06
3847.0,0.37,-0.55,10.05
3859.0,0.37,-0.54,10.02
3872.0,0.37,-0.55,10.04
3885.0,0.38,-0.56,10.08
3898.0,0.38,-0.56,10.05
3911.0,0.38,-0.56,10.02
3924.0,0.38,-0.55,10.06
3937.0,0.36,-0.55,10.03
3949.0,0.37,-0.54,10.04
3962.0,0.38,-0.56,10.07
3975.0,0.37,-0.56,10.04
3988.0,0.38,-0.55,10.04
4001.0,0.39,-0.57,10.03
4014.0,0.38,-0.56,10.06
4027.0,0.4,-0.55,10.06
4039.0,0.37,-0.55,10.03
4052.0,0.39,-0.54,10.04
4065.0,0.38,-0.57,10.04
4078.0,0.38,-0.58,10.03
4091.0,0.37,-0.57,10.05
4104.0,0.37,-0.57,10.03
4117.0,0.39,-0.58,10.05
4129.0,0.38,-0.57,10.04
4142.0,0.36,-0.55,10.03
4155.0,0.39,-0.57,10.04
4168.0,0.39,-0.57,10.02
4181.0,0.39,-0.57,10.06
4194.0,0.37,-0.57,10.04
4207.0,0.38,-0.56,10.04
4219.0,0.37,-0.56,10.03
4232.0,0.4,-0.56,10.07
4245.0,0.4,-0.56,10.06
4258.0,0.37,-0.57,10.05
4271.0,0.37,-0.57,10.05
4284.0,0.38,-0.55,10.04
4297.0,0.37,-0.54,10.06
4309.0,0.38,-0.55,10.03
4322.0,0.38,-0.56,10.02
4335.0,0.38,-0.55,10.04
4348.0,0.39,-0.58,10.05
4361.0,0.38,-0.58,10.04
4374.0,0.39,-0.56,10.02
4387.0,0.38,-0.56,10.06
4399.0,0.37,-0.57,10.07
4412.0,0.38,-0.56,10.05
4425.0,0.39,-0.56,10.03
4438.0,0.39,-0.58,10.06
4451.0,0.39,-0.56,10.06
4464.0,0.4,-0.54,10.05
4477.0,0.39,-0.56,10.04
4489.0,0.39,-0.58,10.03
4502.0,0.4,-0.57,10.03
4515.0,0.38,-0.56,10.04
4528.0,0.37,-0.57,10.02
4541.0,0.37,-0.56,10.07
4554.0,0.37,-0.57,10.07
4567.0,0.36,-0.56,10.05
4579.0,0.37,-0.57,10.05
4592.0,0.38,-0.55,10.09
4605.0,0.39,-0.56,10.03
4618.0,0.38,-0.57,10.05
4631.0,0.37,-0.55,10.05
4644.0,0.38,-0.57,10.01
4657.0,0.38,-0.57,10.02
4669.0,0.39,-0.55,10.05
4682.0,0.39,-0.55,10.04
4695.0,0.38,-0.56,10.04
4708.0,0.37,-0.56,10.06
4721.0,0.38,-0.54,10.04
4734.0,0.38,-0.57,10.07
4747.0,0.39,-0.56,10.07
4759.0,0.4,-0.55,10.04
4772.0,0.39,-0.57,10.04
4785.0,0.39,-0.54,10.05
4798.0,0.37,-0.55,10.05
4811.0,0.37,-0.54,10.01
4824.0,0.35,-0.54,10.04
4837.0,0.37,-0.55,10.06
4849.0,0.39,-0.55,10.07
4862.0,0.4,-0.54,10.06
4875.0,0.38,-0.57,10.07
4888.0,0.38,-0.55,10.06
4901.0,0.38,-0.56,10.04
4914.0,0.37,-0.55,10.04
4927.0,0.39,-0.55,10.05
4939.0,0.4,-0.54,10.05
4952.0,0.4,-0.57,10.04
4965.0,0.37,-0.57,10.03
4978.0,0.38,-0.56,10.06
4991.0,0.37,-0.56,10.04
5004.0,0.37,-0.56,10.03
5017.0,0.38,-0.56,10.04
5029.0,0.38,-0.54,10.06
5042.0,0.37,-0.55,10.05
5055.0,0.36,-0.54,10.02
5068.0,0.39,-0.56,9.98
5081.0,0.41,-0.57,10.09
5094.0,0.4,-0.54,10.14
5107.0,0.36,-0.54,10.01
5119.0,0.37,-0.54,10.0
5132.0,0.36,-0.55,10.06
5145.0,0.38,-0.57,10.04
5158.0,0.39,-0.54,10.09
5171.0,0.38,-0.58,10.06
5184.0,0.39,-0.56,10.01
5197.0,0.39,-0.55,10.04
5209.0,0.38,-0.55,10.04
5222.0,0.38,-0.55,10.0
5235.0,0.39,-0.56,10.01
5248.0,0.39,-0.57,10.05
5261.0,0.36,-0.56,10.04
5274.0,0.36,-0.56,10.07
5287.0,0.37,-0.56,10.05
5299.0,0.38,-0.57,10.04
5312.0,0.39,-0.58,10.05
5325.0,0.4,-0.57,10.09
5338.0,0.38,-0.55,10.05
5351.0,0.36,-0.55,10.0
5364.0,0.36,-0.55,10.02
5377.0,0.38,-0.56,10.03
5389.0,0.38,-0.56,10.04
5402.0,0.38,-0.56,10.07
5415.0,0.36,-0.56,10.02
5428.0,0.37,-0.54,10.04
5441.0,0.37,-0.56,10.05
5454.0,0.38,-0.54,10.05
5467.0,0.36,-0.54,10.06
5479.0,0.38,-0.56,10.05
5492.0,0.37,-0.55,10.05
5505.0,0.39,-0.56,10.07
5518.0,0.38,-0.56,10.06
5531.0,0.38,-0.54,10.02
5544.0,0.38,-0.56,10.04
5557.0,0.37,-0.57,10.06
5569.0,0.37,-0.57,10.07
5582.0,0.37,-0.57,10.02
5595.0,0.39,-0.58,10.04
5608.0,0.38,-0.56,10.05
5621.0,0.36,-0.55,10.0
5634.0,0.4,-0.57,10.04
5647.0,0.36,-0.58,10.1
5659.0,0.39,-0.56,10.07
5672.0,0.39,-0.53,9.96
5685.0,0.39,-0.55,10.04
5698.0,0.39,-0.56,10.07
5711.0,0.41,-0.56,10.04
5724.0,0.4,-0.55,10.04
5737.0,0.39,-0.54,10.05
5749.0,0.4,-0.57,10.07
5762.0,0.42,-0.55,10.02
5775.0,0.39,-0.57,10.03
5788.0,0.37,-0.57,10.05
5801.0,0.37,-0.55,10.06
5814.0,0.37,-0.54,10.04
5827.0,0.37,-0.56,10.07
5839.0,0.36,-0.58,10.04
5852.0,0.36,-0.55,10.03
5865.0,0.41,-0.57,10.03
5878.0,0.38,-0.57,10.05
5891.0,0.38,-0.57,10.03
5904.0,0.38,-0.58,10.04
5917.0,0.37,-0.56,10.05
5929.0,0.37,-0.55,10.04
5942.0,0.36,-0.56,10.06
5955.0,0.38,-0.56,10.06
5968.0,0.39,-0.55,10.02
5981.0,0.4,-0.56,10.08
5994.0,0.38,-0.55,10.05
6007.0,0.36,-0.56,10.03
6019.0,0.35,-0.56,10.01
6032.0,0.37,-0.55,10.04
6045.0,0.4,-0.55,10.04
6058.0,0.38,-0.54,10.06
6071.0,0.38,-0.54,10.02
6084.0,0.39,-0.56,10.04
6097.0,0.39,-0.55,10.04
6109.0,0.39,-0.56,10.05
6122.0,0.37,-0.58,10.04
6135.0,0.38,-0.55,10.06
6148.0,0.39,-0.56,10.04
6161.0,0.38,-0.57,10.05
6174.0,0.38,-0.56,10.04
6187.0,0.38,-0.56,10.04
6199.0,0.38,-0.56,10.06
6212.0,0.38,-0.56,10.04
6225.0,0.38,-0.56,10.03
6238.0,0.38,-0.56,10.07
6251.0,0.37,-0.56,10.06
6264.0,0.37,-0.56,10.05
6277.0,0.38,-0.57,10.04
6289.0,0.38,-0.55,10.05
6302.0,0.36,-0.58,10.04
6315.0,0.38,-0.56,10.03
6328.0,0.36,-0.54,10.04
6341.0,0.37,-0.56,10.03
6354.0,0.36,-0.55,10.05
6367.0,0.39,-0.56,10.02
6379.0,0.37,-0.57,10.04
6392.0,0.39,-0.57,10.05
6405.0,0.4,-0.56,10.04
6418.0,0.4,-0.55,10.06
6431.0,0.39,-0.56,10.07
6444.0,0.39,-0.57,10.03
6457.0,0.38,-0.55,10.02
6469.0,0.38,-0.57,10.04
6482.0,0.38,-0.56,10.04
6495.0,0.37,-0.55,10.02
6508.0,0.37,-0.55,10.03
6521.0,0.38,-0.56,10.05
6534.0,0.36,-0.55,10.03
6547.0,0.38,-0.55,10.03
6559.0,0.36,-0.55,10.05
6572.0,0.39,-0.56,10.05
6585.0,0.37,-0.57,10.06
6598.0,0.38,-0.55,10.02
6611.0,0.37,-0.56,10.03
6624.0,0.37,-0.55,10.03
6637.0,0.37,-0.56,10.05
6649.0,0.38,-0.56,10.06
6662.0,0.39,-0.56,10.06
6675.0,0.36,-0.56,10.03
6688.0,0.37,-0.58,10.03
6701.0,0.37,-0.57,10.05
6714.0,0.37,-0.55,10.04
6727.0,0.38,-0.55,10.06
6739.0,0.4,-0.56,10.05
6752.0,0.38,-0.57,10.05
6765.0,0.36,-0.54,10.03
6778.0,0.37,-0.55,10.05
6791.0,0.37,-0.56,10.07
6804.0,0.37,-0.56,10.03
6817.0,0.35,-0.56,10.03
6829.0,0.36,-0.55,10.04
6842.0,0.38,-0.56,10.04
6855.0,0.39,-0.55,10.04
6868.0,0.37,-0.55,10.04
6881.0,0.38,-0.57,10.04
6894.0,0.38,-0.57,10.04
6907.0,0.39,-0.56,10.07
6919.0,0.39,-0.55,10.04
6932.0,0.38,-0.58,10.01
6945.0,0.39,-0.55,10.06
6958.0,0.36,-0.56,10.01
6971.0,0.4,-0.57,9.94
6984.0,0.44,-0.57,10.14
6997.0,0.4,-0.55,10.15
7009.0,0.35,-0.55,9.99
7022.0,0.34,-0.53,9.99
7035.0,0.34,-0.55,10.08
7048.0,0.38,-0.56,10.03
7061.0,0.41,-0.56,10.03
7074.0,0.41,-0.57,10.07
7087.0,0.39,-0.57,9.99
7099.0,0.39,-0.57,10.02
7112.0,0.37,-0.56,10.05
7125.0,0.37,-0.58,10.04
7138.0,0.38,-0.57,10.07
7151.0,0.39,-0.55,10.05
7164.0,0.39,-0.56,10.04
7177.0,0.4,-0.58,10.04
7189.0,0.39,-0.55,10.05
7202.0,0.39,-0.54,10.03
7215.0,0.39,-0.56,10.04
7228.0,0.38,-0.55,10.06
7241.0,0.37,-0.56,10.03
7254.0,0.37,-0.57,10.02
7267.0,0.38,-0.56,10.05
7279.0,0.39,-0.57,10.02
7292.0,0.38,-0.55,10.04
7305.0,0.38,-0.56,10.06
7318.0,0.37,-0.55,10.03
7331.0,0.37,-0.57,10.03
7344.0,0.39,-0.57,10.05
7357.0,0.4,-0.55,10.03
7369.0,0.39,-0.58,10.04
7382.0,0.39,-0.55,10.07
7395.0,0.37,-0.55,10.01
7408.0,0.37,-0.54,10.03
7421.0,0.37,-0.56,10.04
7434.0,0.39,-0.57,10.03
7447.0,0.37,-0.55,10.05
7459.0,0.38,-0.56,10.06
7472.0,0.37,-0.58,10.02
7485.0,0.38,-0.54,10.03
7498.0,0.41,-0.56,9.99
7511.0,0.46,-0.57,10.15
7524.0,0.38,-0.58,10.15
7537.0,0.36,-0.56,9.96
7549.0,0.36,-0.52,10.0
7562.0,0.36,-0.55,10.1
7575.0,0.35,-0.6,10.09
7588.0,0.37,-0.57,10.05
7601.0,0.37,-0.56,10.05
7614.0,0.36,-0.56,10.04
7627.0,0.35,-0.56,10.03
7639.0,0.38,-0.53,10.01
7652.0,0.4,-0.57,10.04
7665.0,0.4,-0.57,10.09
7678.0,0.39,-0.55,10.05
7691.0,0.37,-0.55,10.02
7704.0,0.38,-0.57,10.09
7717.0,0.39,-0.56,10.08
7729.0,0.38,-0.54,10.03
7742.0,0.37,-0.56,10.06
7755.0,0.38,-0.57,10.06
7768.0,0.39,-0.55,10.01
7781.0,0.38,-0.56,10.0
7794.0,0.37,-0.56,10.04
7807.0,0.38,-0.54,10.01
7819.0,0.37,-0.55,10.01
7832.0,0.37,-0.57,10.03
7845.0,0.37,-0.55,10.05
7858.0,0.37,-0.56,10.02
7871.0,0.37,-0.58,10.03
7884.0,0.39,-0.56,10.05
7897.0,0.38,-0.56,10.04
7909.0,0.39,-0.57,10.05
7922.0,0.4,-0.58,10.04
7935.0,0.39,-0.56,10.06
7948.0,0.41,-0.56,10.05
7961.0,0.39,-0.55,10.04
7974.0,0.39,-0.57,10.05
7987.0,0.39,-0.56,10.08
7999.0,0.38,-0.56,10.06
8012.0,0.36,-0.54,10.05
8025.0,0.35,-0.55,10.05
8038.0,0.37,-0.56,10.03
8051.0,0.39,-0.57,10.02
8064.0,0.39,-0.55,10.03
8077.0,0.37,-0.56,10.04
8089.0,0.39,-0.56,10.02
8102.0,0.37,-0.57,10.03
8115.0,0.37,-0.57,10.02
8128.0,0.39,-0.56,10.03
8141.0,0.38,-0.56,10.05
8154.0,0.37,-0.57,10.02
8167.0,0.4,-0.56,10.03
8179.0,0.4,-0.54,10.02
8192.0,0.4,-0.57,10.04
8205.0,0.37,-0.55,10.02
8218.0,0.38,-0.53,10.05
8231.0,0.38,-0.57,10.05
8244.0,0.39,-0.56,10.04
8257.0,0.39,-0.56,10.07
8269.0,0.37,-0.57,10.04
8282.0,0.4,-0.57,10.04
8295.0,0.38,-0.56,10.03
8308.0,0.38,-0.56,10.05
8321.0,0.38,-0.56,10.05
8334.0,0.37,-0.56,10.04
8347.0,0.38,-0.56,10.06
8359.0,0.39,-0.55,10.04
8372.0,0.38,-0.57,10.06
8385.0,0.4,-0.56,10.07
8398.0,0.38,-0.56,10.06
8411.0,0.38,-0.55,10.06
8424.0,0.37,-0.56,10.01
8437.0,0.4,-0.57,9.99
8449.0,0.4,-0.55,10.11
8462.0,0.37,-0.58,10.11
8475.0,0.34,-0.57,10.02
8488.0,0.35,-0.54,10.06
8501.0,0.38,-0.55,10.04
8514.0,0.39,-0.57,10.05
8527.0,0.4,-0.58,10.07
8539.0,0.4,-0.55,10.06
8552.0,0.4,-0.57,10.03
8565.0,0.38,-0.59,10.0
8578.0,0.37,-0.56,10.01
8591.0,0.38,-0.58,10.04
8604.0,0.39,-0.56,10.08
8617.0,0.38,-0.57,10.07
8629.0,0.37,-0.56,10.03
8642.0,0.37,-0.56,10.04
8655.0,0.38,-0.57,10.06
8668.0,0.4,-0.57,10.03
8681.0,0.4,-0.56,10.05
8694.0,0.4,-0.57,10.07
8707.0,0.39,-0.56,10.02
8719.0,0.37,-0.56,10.03
8732.0,0.39,-0.56,10.05
8745.0,0.37,-0.56,10.04
8758.0,0.39,-0.56,10.05
8771.0,0.38,-0.56,10.03
8784.0,0.37,-0.55,10.03
8797.0,0.39,-0.56,10.04
8809.0,0.38,-0.55,10.04
8822.0,0.38,-0.56,10.03
8835.0,0.36,-0.54,10.02
8848.0,0.37,-0.56,10.03
8861.0,0.37,-0.56,10.04
8874.0,0.38,-0.55,10.01
8887.0,0.39,-0.56,10.04
8899.0,0.37,-0.55,10.06
8912.0,0.38,-0.54,10.03
8925.0,0.36,-0.56,10.0
8938.0,0.38,-0.57,10.06
8951.0,0.39,-0.59,10.07
8964.0,0.4,-0.6,10.04
8977.0,0.4,-0.57,10.06
8989.0,0.41,-0.57,10.08
9002.0,0.38,-0.56,10.04
9015.0,0.38,-0.57,10.05
9028.0,0.37,-0.54,10.04
9041.0,0.37,-0.55,10.06
9054.0,0.38,-0.57,10.08
9067.0,0.38,-0.55,10.1
9079.0,0.37,-0.54,10.04
9092.0,0.37,-0.55,10.04
9105.0,0.36,-0.56,10.03
9118.0,0.37,-0.57,10.03
9131.0,0.38,-0.57,10.05
9144.0,0.38,-0.55,10.04
9157.0,0.4,-0.57,10.05
9169.0,0.38,-0.55,10.05
9182.0,0.38,-0.53,10.05
9195.0,0.37,-0.54,10.03
9208.0,0.37,-0.56,10.06
9221.0,0.39,-0.55,10.06
9234.0,0.38,-0.57,10.04
9247.0,0.39,-0.57,10.05
9259.0,0.39,-0.58,10.06
9272.0,0.39,-0.55,10.06
9285.0,0.38,-0.56,10.02
9298.0,0.38,-0.58,10.05
9311.0,0.4,-0.57,10.01
9324.0,0.37,-0.56,10.04
9337.0,0.38,-0.57,10.06
9349.0,0.38,-0.56,10.05
9362.0,0.4,-0.55,10.01
9375.0,0.38,-0.57,10.04
9388.0,0.38,-0.56,10.05
9401.0,0.39,-0.56,10.03
9414.0,0.4,-0.57,10.03
9427.0,0.4,-0.57,10.04
9439.0,0.39,-0.55,10.04
9452.0,0.38,-0.56,10.06
9465.0,0.37,-0.56,10.05
9478.0,0.36,-0.56,10.03
9491.0,0.39,-0.58,10.05
9504.0,0.39,-0.55,10.04
9517.0,0.41,-0.56,10.05
9529.0,0.4,-0.57,10.02
9542.0,0.4,-0.57,10.03
9555.0,0.38,-0.56,10.04
9568.0,0.37,-0.54,10.04
9581.0,0.37,-0.56,10.04
9594.0,0.37,-0.57,10.04
9607.0,0.37,-0.57,10.04
9619.0,0.39,-0.57,10.05
9632.0,0.39,-0.58,10.07
9645.0,0.38,-0.55,10.04
9658.0,0.38,-0.55,10.01
9671.0,0.38,-0.56,10.04
9684.0,0.38,-0.57,10.06
9697.0,0.4,-0.57,10.03
9709.0,0.38,-0.57,10.02
9722.0,0.39,-0.58,10.07
9735.0,0.39,-0.55,10.06
9748.0,0.37,-0.55,10.06
9761.0,0.37,-0.55,10.04
9774.0,0.38,-0.57,10.02
9787.0,0.38,-0.54,10.03
9799.0,0.37,-0.55,10.06
9812.0,0.38,-0.56,10.06
9825.0,0.39,-0.56,10.03
9838.0,0.38,-0.55,10.04
9851.0,0.39,-0.57,10.03
9864.0,0.39,-0.56,10.01
9877.0,0.39,-0.55,10.05
9889.0,0.39,-0.57,10.05
9902.0,0.39,-0.54,10.04
9915.0,0.4,-0.55,10.04
9928.0,0.38,-0.55,10.04
9941.0,0.39,-0.57,10.05
9954.0,0.37,-0.54,10.05
9967.0,0.38,-0.55,10.03
9979.0,0.39,-0.56,10.01
9992.0,0.39,-0.55,10.05
10005.0,0.37,-0.56,10.06
10018.0,0.37,-0.55,10.05
10031.0,0.37,-0.53,10.02
10044.0,0.38,-0.55,10.03
10057.0,0.38,-0.56,10.02
10069.0,0.39,-0.55,10.05
10082.0,0.4,-0.57,10.03
10095.0,0.4,-0.57,10.04
10108.0,0.39,-0.56,10.05
10121.0,0.39,-0.56,10.04
10134.0,0.38,-0.56,10.03
10147.0,0.39,-0.56,10.04
10159.0,0.39,-0.57,10.05
10172.0,0.37,-0.55,10.06
10185.0,0.37,-0.55,10.04
10198.0,0.39,-0.56,10.05
10211.0,0.37,-0.56,10.01
10224.0,0.36,-0.56,10.02
10237.0,0.35,-0.54,10.05
10249.0,0.37,-0.55,10.08
10262.0,0.35,-0.56,10.05
10275.0,0.37,-0.57,10.06
10288.0,0.37,-0.55,10.04
10301.0,0.36,-0.55,10.05
10314.0,0.37,-0.54,10.03
10327.0,0.38,-0.54,10.01
10339.0,0.39,-0.55,10.05
10352.0,0.4,-0.56,10.06
10365.0,0.41,-0.58,10.05
10378.0,0.39,-0.57,10.07
10391.0,0.41,-0.58,10.05
10404.0,0.41,-0.56,10.03
10417.0,0.4,-0.57,10.04
10429.0,0.42,-0.56,10.04
10442.0,0.41,-0.57,10.05
10455.0,0.39,-0.56,10.03
10468.0,0.4,-0.56,10.04
10481.0,0.4,-0.57,10.04
10494.0,0.39,-0.55,10.01
10507.0,0.38,-0.57,10.07
10519.0,0.39,-0.57,10.07
10532.0,0.37,-0.55,10.05
10545.0,0.36,-0.55,10.07
10558.0,0.37,-0.54,10.01
10571.0,0.36,-0.55,10.01
10584.0,0.37,-0.57,10.05
10597.0,0.35,-0.56,10.07
10609.0,0.34,-0.57,10.05
10622.0,0.34,-0.55,10.03
10635.0,0.33,-0.57,10.04
10648.0,0.34,-0.55,10.04
10661.0,0.33,-0.53,10.04
10674.0,0.37,-0.55,10.04
10687.0,0.39,-0.56,10.06
10699.0,0.4,-0.56,10.03
10712.0,0.38,-0.57,10.04
10725.0,0.4,-0.58,10.04
10738.0,0.39,-0.58,10.05
10751.0,0.4,-0.57,10.04
10764.0,0.4,-0.57,10.04
10777.0,0.43,-0.57,10.06
10789.0,0.43,-0.57,10.04
10802.0,0.43,-0.56,10.04
10815.0,0.41,-0.59,10.06
10828.0,0.4,-0.58,10.04
10841.0,0.43,-0.56,10.03
10854.0,0.39,-0.58,10.07
10867.0,0.39,-0.57,10.02
10879.0,0.38,-0.56,10.06
10892.0,0.38,-0.56,10.03
10905.0,0.38,-0.54,10.0
10918.0,0.34,-0.54,10.03
10931.0,0.35,-0.55,10.07
10944.0,0.35,-0.54,10.05
10957.0,0.36,-0.54,10.06
10969.0,0.33,-0.54,10.04
10982.0,0.33,-0.54,10.06
10995.0,0.33,-0.52,10.05
11008.0,0.34,-0.53,10.0
11021.0,0.35,-0.53,10.01
11034.0,0.38,-0.56,10.05
11047.0,0.39,-0.56,10.03
11059.0,0.39,-0.56,10.05
11072.0,0.4,-0.57,10.04
11085.0,0.39,-0.55,10.04
11098.0,0.41,-0.57,10.04
11111.0,0.41,-0.57,10.07
11124.0,0.43,-0.57,10.06
11137.0,0.43,-0.57,10.04
11149.0,0.43,-0.57,10.06
11162.0,0.42,-0.57,10.05
11175.0,0.41,-0.57,10.04
11188.0,0.4,-0.58,10.04
11201.0,0.4,-0.59,10.03
11214.0,0.4,-0.56,10.03
11227.0,0.38,-0.56,10.04
11239.0,0.38,-0.55,10.04
11252.0,0.36,-0.55,10.04
11265.0,0.36,-0.55,10.05
11278.0,0.38,-0.56,10.05
11291.0,0.35,-0.54,10.08
11304.0,0.34,-0.56,10.08
11317.0,0.35,-0.55,10.04
11329.0,0.33,-0.53,10.04
11342.0,0.3,-0.54,10.04
11355.0,0.34,-0.54,10.05
11368.0,0.33,-0.54,10.04
11381.0,0.35,-0.55,10.04
11394.0,0.37,-0.56,10.03
11407.0,0.39,-0.55,10.02
11419.0,0.39,-0.56,10.04
11432.0,0.39,-0.56,10.04
11445.0,0.39,-0.54,10.03
11458.0,0.41,-0.57,10.02
11471.0,0.4,-0.57,10.07
11484.0,0.4,-0.57,10.08
11497.0,0.4,-0.57,10.06
11509.0,0.41,-0.55,10.06
11522.0,0.4,-0.56,10.04
11535.0,0.39,-0.57,10.05
11548.0,0.4,-0.56,10.06
11561.0,0.41,-0.55,10.06
11574.0,0.41,-0.54,10.05
11587.0,0.38,-0.56,10.07
11599.0,0.39,-0.57,10.02
11612.0,0.37,-0.57,10.03
11625.0,0.38,-0.56,10.04
11638.0,0.37,-0.57,10.01
11651.0,0.34,-0.56,10.04
11664.0,0.36,-0.55,10.07
11677.0,0.34,-0.54,10.05
11689.0,0.34,-0.56,10.04
11702.0,0.33,-0.56,10.04
11715.0,0.35,-0.55,10.03
11728.0,0.36,-0.55,10.03
11741.0,0.35,-0.57,10.03
11754.0,0.36,-0.56,10.06
11767.0,0.39,-0.57,10.03
11779.0,0.39,-0.55,10.07
11792.0,0.41,-0.55,10.04
11805.0,0.39,-0.58,10.04
11818.0,0.4,-0.56,10.03
11831.0,0.42,-0.56,10.06
11844.0,0.44,-0.57,10.05
11857.0,0.43,-0.58,10.05
11869.0,0.42,-0.56,10.02
11882.0,0.4,-0.57,10.01
11895.0,0.41,-0.58,10.02
11908.0,0.4,-0.57,10.05
11921.0,0.4,-0.57,10.05
11934.0,0.38,-0.57,10.04
11947.0,0.37,-0.55,10.05
11959.0,0.35,-0.56,10.05
11972.0,0.37,-0.56,10.08
11985.0,0.37,-0.55,10.05
11998.0,0.38,-0.56,10.06
12011.0,0.34,-0.55,10.05
12024.0,0.33,-0.56,10.03
12037.0,0.34,-0.53,10.03
12050.0,0.33,-0.55,10.04
12062.0,0.35,-0.52,10.04
12075.0,0.36,-0.53,10.04
12088.0,0.36,-0.57,10.04
12101.0,0.36,-0.56,10.01
12114.0,0.39,-0.55,10.04
12127.0,0.4,-0.57,10.04
12140.0,0.41,-0.57,10.05
12152.0,0.43,-0.57,10.04
12165.0,0.41,-0.58,10.02
12178.0,0.41,-0.59,10.04
12191.0,0.44,-0.57,10.04
12204.0,0.42,-0.58,10.04
12217.0,0.43,-0.59,10.06
12230.0,0.43,-0.58,10.04
12242.0,0.42,-0.58,10.01
12255.0,0.39,-0.56,10.02
12268.0,0.38,-0.55,10.03
12281.0,0.38,-0.56,10.03
12294.0,0.37,-0.56,10.03
12307.0,0.37,-0.55,10.07
12320.0,0.38,-0.55,10.11
12332.0,0.34,-0.52,10.09
12345.0,0.32,-0.54,10.07
12358.0,0.32,-0.54,10.06
12371.0,0.33,-0.52,10.02
12384.0,0.31,-0.53,10.04
12397.0,0.33,-0.54,10.06
12410.0,0.34,-0.57,10.02
12422.0,0.35,-0.57,10.05
12435.0,0.38,-0.55,10.06
12448.0,0.38,-0.57,10.07
12461.0,0.4,-0.56,10.05
12474.0,0.39,-0.54,10.04
12487.0,0.4,-0.57,10.07
12500.0,0.42,-0.56,10.03
12512.0,0.43,-0.58,10.03
12525.0,0.44,-0.59,10.03
12538.0,0.45,-0.6,10.04
12551.0,0.44,-0.59,10.06
12564.0,0.45,-0.59,10.08
12577.0,0.42,-0.57,10.06
12590.0,0.4,-0.58,10.05
12602.0,0.39,-0.55,10.03
12615.0,0.38,-0.56,10.04
12628.0,0.38,-0.55,10.04
12641.0,0.36,-0.54,10.06
12654.0,0.34,-0.55,10.08
12667.0,0.32,-0.55,10.04
12680.0,0.28,-0.53,10.04
12692.0,0.29,-0.53,10.02
12705.0,0.29,-0.53,10.02
12718.0,0.3,-0.52,10.04
12731.0,0.32,-0.56,10.07
12744.0,0.35,-0.55,10.04
12757.0,0.35,-0.56,10.04
12770.0,0.38,-0.56,10.04
12782.0,0.39,-0.58,10.02
12795.0,0.39,-0.57,10.05
12808.0,0.42,-0.59,10.07
12821.0,0.43,-0.59,10.05
12834.0,0.45,-0.59,10.04
12847.0,0.49,-0.6,10.05
