timestamp,accX,accY,accZ
2.0,0.41,-0.9,10.06
15.0,0.32,-0.71,8.11
28.0,0.39,-0.86,9.68
41.0,0.44,-0.89,10.02
54.0,0.43,-0.91,10.09
67.0,0.37,-0.93,10.06
79.0,0.38,-0.9,10.02
92.0,0.37,-0.87,9.96
105.0,0.43,-0.86,10.02
118.0,0.43,-0.87,10.1
131.0,0.44,-0.9,10.04
144.0,0.41,-0.89,10.01
157.0,0.37,-0.88,9.92
169.0,0.34,-0.88,9.9
182.0,0.28,-0.87,10.0
195.0,0.28,-0.89,10.05
208.0,0.35,-0.86,10.1
221.0,0.41,-0.9,10.18
234.0,0.44,-0.9,10.16
247.0,0.45,-0.89,10.07
259.0,0.47,-0.87,9.98
272.0,0.4,-0.85,9.92
285.0,0.38,-0.84,9.99
298.0,0.38,-0.87,10.13
311.0,0.38,-0.91,10.18
324.0,0.41,-0.92,10.2
337.0,0.4,-0.89,10.13
349.0,0.42,-0.86,10.01
362.0,0.41,-0.85,9.95
375.0,0.42,-0.85,9.9
388.0,0.41,-0.89,9.93
401.0,0.4,-0.91,10.05
414.0,0.42,-0.99,10.13
427.0,0.42,-1.02,10.14
439.0,0.43,-1.0,10.08
452.0,0.46,-0.92,10.06
465.0,0.5,-0.88,10.04
478.0,0.54,-0.87,10.01
491.0,0.53,-0.87,9.92
504.0,0.49,-0.87,9.9
517.0,0.44,-0.87,9.94
529.0,0.42,-0.88,9.98
542.0,0.44,-0.9,10.12
555.0,0.46,-0.93,10.17
568.0,0.46,-0.94,10.12
581.0,0.49,-0.89,10.08
594.0,0.5,-0.88,9.99
607.0,0.48,-0.86,9.91
619.0,0.46,-0.84,9.88
632.0,0.45,-0.87,9.97
645.0,0.4,-0.88,10.02
658.0,0.4,-0.9,10.11
671.0,0.4,-0.91,10.14
684.0,0.44,-0.91,10.13
697.0,0.45,-0.9,10.07
709.0,0.43,-0.91,9.97
722.0,0.44,-0.89,9.92
735.0,0.46,-0.88,9.95
748.0,0.48,-0.89,10.01
761.0,0.49,-0.93,10.03
774.0,0.49,-0.92,10.05
787.0,0.47,-0.93,10.12
799.0,0.53,-0.91,10.13
812.0,0.51,-0.93,10.09
825.0,0.53,-0.89,9.98
838.0,0.49,-0.88,9.91
851.0,0.47,-0.88,9.94
864.0,0.51,-0.9,9.96
877.0,0.52,-0.92,10.02
889.0,0.54,-0.92,10.09
902.0,0.55,-0.92,10.08
915.0,0.53,-0.92,10.05
928.0,0.5,-0.9,10.02
941.0,0.47,-0.88,10.03
954.0,0.42,-0.86,10.02
967.0,0.39,-0.88,10.07
979.0,0.43,-0.91,10.13
992.0,0.4,-0.91,10.06
1005.0,0.39,-0.92,9.97
1018.0,0.39,-0.9,9.94
1031.0,0.42,-0.86,9.94
1044.0,0.5,-0.85,9.99
1057.0,0.57,-0.87,10.06
1069.0,0.52,-0.91,10.05
1082.0,0.46,-0.89,10.01
1095.0,0.44,-0.89,10.07
1108.0,0.46,-0.89,10.12
1121.0,0.5,-0.87,10.09
1134.0,0.52,-0.9,10.05
1147.0,0.49,-0.93,10.02
1159.0,0.45,-0.94,10.0
1172.0,0.45,-0.94,10.01
1185.0,0.47,-0.89,10.08
1198.0,0.5,-0.89,10.05
1211.0,0.53,-0.9,10.02
1224.0,0.51,-0.89,10.03
1237.0,0.51,-0.92,10.04
1249.0,0.48,-0.93,10.08
1262.0,0.5,-0.91,10.08
1275.0,0.49,-0.91,10.03
1288.0,0.47,-0.88,10.0
1301.0,0.43,-0.87,9.96
1314.0,0.41,-0.86,9.99
1327.0,0.39,-0.87,10.05
1339.0,0.42,-0.88,10.07
1352.0,0.44,-0.88,10.07
1365.0,0.47,-0.86,10.12
1378.0,0.51,-0.84,10.11
1391.0,0.5,-0.85,10.09
1404.0,0.52,-0.89,10.0
1417.0,0.54,-0.91,9.89
1429.0,0.59,-0.93,9.9
1442.0,0.57,-0.94,9.96
1455.0,0.5,-0.94,10.11
1468.0,0.52,-0.93,10.23
1481.0,0.59,-0.92,10.29
1494.0,0.61,-0.86,10.11
1507.0,0.59,-0.85,9.9
1519.0,0.5,-0.84,9.78
1532.0,0.43,-0.87,9.81
1545.0,0.39,-0.92,9.95
1558.0,0.39,-0.94,10.07
1571.0,0.43,-0.9,10.17
1584.0,0.51,-0.82,10.29
1597.0,0.62,-0.75,10.32
1609.0,0.76,-0.78,10.25
1622.0,0.69,-0.86,9.91
1635.0,0.48,-0.88,9.74
1648.0,0.38,-0.89,9.74
1661.0,0.33,-0.93,9.78
1674.0,0.38,-0.94,9.86
1687.0,0.37,-0.93,9.91
1699.0,0.36,-0.91,10.08
1712.0,0.41,-0.93,10.32
1725.0,0.4,-0.93,10.48
1738.0,0.35,-0.9,10.47
1751.0,0.27,-0.89,10.24
1764.0,0.17,-0.87,9.93
1777.0,0.17,-0.85,9.69
1789.0,0.23,-0.81,9.62
1802.0,0.42,-0.75,9.71
1815.0,0.65,-0.72,9.99
1828.0,0.88,-0.72,10.17
1841.0,0.94,-0.7,10.28
1854.0,0.85,-0.73,10.27
1867.0,0.65,-0.75,10.13
1879.0,0.43,-0.79,9.93
1892.0,0.31,-0.84,9.78
1905.0,0.26,-0.9,9.75
1918.0,0.3,-0.94,9.86
1931.0,0.28,-0.99,10.06
1944.0,0.38,-1.0,10.18
1957.0,0.44,-0.98,10.25
1969.0,0.54,-0.93,10.23
1982.0,0.56,-0.87,10.11
1995.0,0.48,-0.84,10.02
2008.0,0.43,-0.83,9.93
2021.0,0.44,-0.84,9.94
2034.0,0.46,-0.86,9.82
2047.0,0.47,-0.88,9.81
2059.0,0.48,-0.93,9.96
2072.0,0.52,-0.98,10.16
2085.0,0.52,-1.04,10.29
2098.0,0.55,-1.08,10.38
2111.0,0.57,-1.07,10.3
2124.0,0.59,-1.03,10.14
2137.0,0.56,-0.95,9.96
2149.0,0.51,-0.86,9.85
2162.0,0.51,-0.79,9.86
2175.0,0.47,-0.8,9.98
2188.0,0.49,-0.82,10.1
2201.0,0.52,-0.84,10.24
2214.0,0.47,-0.84,10.2
2227.0,0.43,-0.82,10.05
2239.0,0.41,-0.79,9.9
2252.0,0.4,-0.74,9.82
2265.0,0.39,-0.7,9.88
2278.0,0.36,-0.69,10.01
2291.0,0.3,-0.71,10.06
2304.0,0.23,-0.71,10.05
2317.0,0.21,-0.7,9.98
2329.0,0.3,-0.68,9.98
2342.0,0.33,-0.71,9.88
2355.0,0.24,-0.72,9.83
2368.0,0.21,-0.75,9.87
2381.0,0.22,-0.78,10.01
2394.0,0.35,-0.81,10.17
2407.0,0.41,-0.83,10.14
2419.0,0.5,-0.84,10.05
2432.0,0.54,-0.88,9.98
2445.0,0.58,-0.88,9.96
2458.0,0.57,-0.92,9.98
2471.0,0.59,-0.99,10.04
2484.0,0.62,-1.01,10.04
2497.0,0.79,-1.1,10.05
2509.0,0.86,-1.12,9.92
2522.0,0.87,-1.13,10.08
2535.0,0.83,-1.11,10.33
2548.0,0.73,-1.09,10.41
2561.0,0.63,-1.01,10.32
2574.0,0.61,-0.95,10.16
2587.0,0.52,-0.93,9.95
2599.0,0.4,-0.88,9.84
2612.0,0.35,-0.85,9.87
2625.0,0.36,-0.79,9.96
2638.0,0.42,-0.75,10.04
2651.0,0.49,-0.76,10.06
2664.0,0.52,-0.78,9.98
2677.0,0.52,-0.82,9.92
2689.0,0.47,-0.87,9.94
2702.0,0.47,-0.92,10.06
2715.0,0.44,-0.96,10.09
2728.0,0.48,-0.97,10.13
2741.0,0.54,-0.92,10.13
2754.0,0.59,-0.94,10.11
2767.0,0.55,-0.91,10.0
2779.0,0.49,-0.88,9.94
2792.0,0.45,-0.89,9.93
2805.0,0.45,-0.89,9.95
2818.0,0.47,-0.93,10.1
2831.0,0.49,-0.96,10.19
2844.0,0.5,-0.95,10.1
2857.0,0.46,-0.91,10.0
2869.0,0.38,-0.85,9.91
2882.0,0.35,-0.85,9.94
2895.0,0.37,-0.85,10.02
2908.0,0.41,-0.93,10.15
2921.0,0.46,-0.94,10.17
2934.0,0.5,-0.95,10.05
2947.0,0.47,-0.94,9.97
2959.0,0.46,-0.93,9.93
2972.0,0.52,-0.91,9.97
2985.0,0.56,-0.89,10.0
2998.0,0.57,-0.89,10.04
3011.0,0.53,-0.91,10.07
3024.0,0.5,-0.91,10.14
3037.0,0.53,-0.96,10.23
3049.0,0.48,-1.01,10.2
3062.0,0.41,-1.02,10.12
3075.0,0.37,-0.96,9.98
3088.0,0.46,-0.85,9.93
3101.0,0.56,-0.75,9.87
3114.0,0.59,-0.73,9.82
3127.0,0.52,-0.81,9.83
3139.0,0.43,-0.91,9.95
3152.0,0.36,-1.0,10.11
3165.0,0.37,-1.06,10.2
3178.0,0.38,-1.04,10.13
3191.0,0.42,-0.95,10.04
3204.0,0.43,-0.87,9.92
3217.0,0.43,-0.78,9.86
3229.0,0.44,-0.78,9.97
3242.0,0.45,-0.82,10.05
3255.0,0.44,-0.89,10.05
3268.0,0.41,-0.92,10.04
3281.0,0.4,-0.91,10.05
3294.0,0.39,-0.94,10.04
3307.0,0.43,-0.95,10.08
3319.0,0.44,-0.95,10.07
3332.0,0.44,-0.91,10.03
3345.0,0.46,-0.88,10.01
3358.0,0.46,-0.87,10.0
3371.0,0.49,-0.89,10.03
3384.0,0.5,-0.9,10.03
3397.0,0.48,-0.91,10.02
3409.0,0.46,-0.92,10.02
3422.0,0.49,-0.91,9.98
3435.0,0.49,-0.92,10.03
3448.0,0.49,-0.94,10.1
3461.0,0.51,-0.94,10.15
3474.0,0.5,-0.95,10.09
3487.0,0.48,-0.93,9.95
3499.0,0.42,-0.9,9.89
3512.0,0.4,-0.87,9.91
3525.0,0.42,-0.89,9.95
3538.0,0.45,-0.91,10.06
3551.0,0.51,-0.96,10.13
3564.0,0.53,-0.98,10.14
3577.0,0.53,-0.97,10.1
3589.0,0.53,-0.93,10.07
3602.0,0.54,-0.91,10.04
3615.0,0.52,-0.9,10.01
3628.0,0.52,-0.89,10.0
3641.0,0.48,-0.88,9.97
3654.0,0.45,-0.87,9.95
3667.0,0.44,-0.9,10.05
3679.0,0.45,-0.94,10.07
3692.0,0.47,-0.94,10.04
3705.0,0.48,-0.93,10.04
3718.0,0.48,-0.95,9.97
3731.0,0.46,-0.94,9.98
3744.0,0.45,-0.95,10.04
3757.0,0.47,-0.95,10.07
3769.0,0.46,-0.93,10.07
3782.0,0.47,-0.94,10.03
3795.0,0.48,-0.93,9.97
3808.0,0.48,-0.93,9.95
3821.0,0.48,-0.94,9.99
3834.0,0.48,-0.94,10.03
3847.0,0.5,-0.94,10.08
3859.0,0.51,-0.96,10.11
3872.0,0.52,-0.97,10.06
3885.0,0.48,-0.95,10.01
3898.0,0.47,-0.94,9.98
3911.0,0.45,-0.93,10.03
3924.0,0.47,-0.92,10.05
3937.0,0.54,-0.91,10.05
3949.0,0.53,-0.91,10.02
3962.0,0.54,-0.91,10.03
3975.0,0.5,-0.91,10.02
3988.0,0.44,-0.92,9.94
4001.0,0.42,-0.95,9.93
4014.0,0.48,-0.97,10.02
4027.0,0.53,-0.97,10.09
4039.0,0.54,-0.97,10.12
4052.0,0.52,-0.95,10.1
4065.0,0.48,-0.91,10.04
4078.0,0.49,-0.89,10.01
4091.0,0.49,-0.85,9.97
4104.0,0.5,-0.83,9.98
4117.0,0.53,-0.86,10.01
4129.0,0.52,-0.89,10.01
4142.0,0.46,-0.91,10.01
4155.0,0.42,-0.96,10.06
4168.0,0.38,-0.98,10.03
4181.0,0.36,-1.02,10.0
4194.0,0.35,-1.0,10.01
4207.0,0.38,-0.96,10.03
4219.0,0.43,-0.94,9.98
4232.0,0.45,-0.92,9.97
4245.0,0.49,-0.94,9.97
4258.0,0.54,-0.99,10.08
4271.0,0.63,-1.0,10.18
4284.0,0.66,-1.01,10.15
4297.0,0.61,-0.94,10.02
4309.0,0.55,-0.88,9.92
4322.0,0.51,-0.86,9.9
4335.0,0.52,-0.88,10.0
4348.0,0.52,-0.95,10.04
4361.0,0.51,-0.99,10.08
4374.0,0.53,-1.05,10.09
4387.0,0.53,-1.05,10.1
4399.0,0.55,-1.04,10.11
4412.0,0.57,-1.02,10.07
4425.0,0.53,-0.99,9.97
4438.0,0.49,-0.95,9.86
4451.0,0.45,-0.95,9.9
4464.0,0.45,-0.97,10.03
4477.0,0.51,-0.99,10.15
4489.0,0.54,-0.98,10.12
4502.0,0.51,-0.92,10.0
4515.0,0.48,-0.88,9.96
4528.0,0.46,-0.89,10.05
4541.0,0.46,-0.95,10.07
4554.0,0.48,-0.98,9.99
4567.0,0.48,-0.97,9.96
4579.0,0.48,-0.95,10.0
4592.0,0.51,-0.96,10.02
4605.0,0.51,-1.0,10.07
4618.0,0.58,-1.01,10.11
4631.0,0.6,-1.01,10.06
4644.0,0.58,-0.99,10.0
4657.0,0.54,-0.95,9.95
4669.0,0.48,-0.91,9.99
4682.0,0.52,-0.93,10.09
4695.0,0.53,-0.97,10.11
4708.0,0.48,-1.0,10.02
4721.0,0.49,-1.0,9.97
4734.0,0.52,-1.02,10.03
4747.0,0.55,-1.01,10.06
4759.0,0.54,-1.02,10.08
4772.0,0.46,-1.02,10.04
4785.0,0.4,-1.0,9.95
4798.0,0.43,-0.96,10.01
4811.0,0.57,-0.98,10.22
4824.0,0.69,-1.0,10.25
4837.0,0.67,-1.0,10.06
4849.0,0.56,-0.93,9.94
4862.0,0.5,-0.89,9.85
4875.0,0.42,-0.91,9.85
4888.0,0.38,-0.94,9.97
4901.0,0.44,-1.0,10.11
4914.0,0.48,-1.02,10.07
4927.0,0.47,-0.98,9.98
4939.0,0.5,-0.95,10.02
4952.0,0.57,-0.96,10.09
4965.0,0.62,-0.95,10.07
4978.0,0.62,-0.93,9.93
4991.0,0.58,-0.9,9.87
5004.0,0.56,-0.95,10.03
5017.0,0.63,-1.02,10.18
5029.0,0.65,-1.02,10.18
5042.0,0.56,-1.03,10.1
5055.0,0.34,-1.03,10.0
5068.0,0.24,-1.07,10.01
5081.0,0.3,-1.02,10.01
5094.0,0.42,-0.9,10.04
5107.0,0.47,-0.81,10.0
5119.0,0.44,-0.83,9.98
5132.0,0.42,-0.91,10.01
5145.0,0.44,-0.93,10.11
5158.0,0.48,-0.87,10.17
5171.0,0.48,-0.79,10.17
5184.0,0.33,-0.79,10.18
5197.0,0.25,-0.87,10.21
5209.0,0.28,-1.02,10.23
5222.0,0.31,-1.08,10.11
5235.0,0.34,-1.03,10.09
5248.0,0.26,-0.92,10.0
5261.0,0.15,-0.84,9.98
5274.0,0.01,-0.85,9.92
5287.0,0.06,-0.87,9.98
5299.0,0.17,-0.89,9.98
5312.0,0.28,-0.85,9.97
5325.0,0.37,-0.82,9.86
5338.0,0.35,-0.86,9.78
5351.0,0.27,-0.91,9.82
5364.0,0.23,-1.03,10.04
5377.0,0.25,-1.03,10.21
5389.0,0.25,-0.96,10.25
5402.0,0.31,-0.86,10.17
5415.0,0.32,-0.75,10.03
5428.0,0.33,-0.69,9.96
5441.0,0.34,-0.74,10.04
5454.0,0.32,-0.81,10.05
5467.0,0.33,-0.82,10.07
5479.0,0.3,-0.84,10.02
5492.0,0.29,-0.86,10.07
5505.0,0.28,-0.82,10.12
5518.0,0.16,-0.74,10.08
5531.0,0.01,-0.65,9.89
5544.0,-0.09,-0.59,9.87
5557.0,-0.05,-0.65,10.04
5569.0,0.02,-0.75,10.17
5582.0,0.08,-0.8,10.18
5595.0,0.12,-0.74,10.01
5608.0,0.16,-0.59,9.8
5621.0,0.24,-0.51,9.87
5634.0,0.32,-0.51,10.05
5647.0,0.32,-0.56,10.08
5659.0,0.22,-0.56,10.04
5672.0,0.13,-0.5,10.03
5685.0,0.03,-0.49,10.05
5698.0,-0.01,-0.49,9.99
5711.0,-0.01,-0.51,9.94
5724.0,-0.03,-0.55,9.91
5737.0,0.02,-0.61,9.97
5749.0,0.08,-0.59,10.05
5762.0,0.17,-0.57,10.15
5775.0,0.24,-0.58,10.25
5788.0,0.3,-0.58,10.16
5801.0,0.3,-0.61,10.01
5814.0,0.32,-0.67,9.95
5827.0,0.35,-0.7,9.91
5839.0,0.38,-0.71,9.93
5852.0,0.36,-0.74,9.92
5865.0,0.4,-0.75,9.92
5878.0,0.52,-0.83,10.03
5891.0,0.66,-0.9,10.16
5904.0,0.65,-0.97,10.24
5917.0,0.57,-0.99,10.2
5929.0,0.37,-0.93,10.13
5942.0,0.23,-0.83,10.05
5955.0,0.21,-0.75,10.03
5968.0,0.18,-0.75,10.06
5981.0,0.13,-0.76,10.11
5994.0,0.03,-0.74,10.09
6007.0,0.0,-0.65,10.17
6019.0,-0.06,-0.52,10.08
6032.0,-0.04,-0.44,10.04
6045.0,0.02,-0.39,9.93
6058.0,0.11,-0.36,9.94
6071.0,0.2,-0.38,9.91
6084.0,0.26,-0.44,10.03
6097.0,0.26,-0.62,10.07
6110.0,0.28,-0.75,10.1
6122.0,0.3,-0.77,10.08
6135.0,0.37,-0.78,10.08
6148.0,0.38,-0.78,10.07
6161.0,0.34,-0.7,10.07
6174.0,0.3,-0.67,10.11
6187.0,0.19,-0.68,10.13
6200.0,0.17,-0.76,10.17
6212.0,0.2,-0.79,10.1
6225.0,0.2,-0.77,9.95
6238.0,0.2,-0.71,9.93
6251.0,0.22,-0.67,10.02
6264.0,0.26,-0.65,10.15
6277.0,0.24,-0.66,10.21
6290.0,0.26,-0.67,10.22
6302.0,0.24,-0.68,10.2
6315.0,0.21,-0.7,10.12
6328.0,0.14,-0.7,10.04
6341.0,0.08,-0.69,10.04
6354.0,0.05,-0.61,9.95
6367.0,0.09,-0.53,9.94
6380.0,0.16,-0.49,9.98
6392.0,0.23,-0.49,9.97
6405.0,0.28,-0.47,9.92
6418.0,0.28,-0.52,10.01
6431.0,0.34,-0.62,10.15
6444.0,0.36,-0.75,10.24
6457.0,0.37,-0.77,10.16
6470.0,0.38,-0.8,10.06
6482.0,0.46,-0.82,10.07
6495.0,0.52,-0.81,10.2
6508.0,0.49,-0.79,10.26
6521.0,0.34,-0.73,10.18
6534.0,0.17,-0.66,9.99
6547.0,0.03,-0.58,9.85
6560.0,-0.01,-0.54,9.87
6572.0,0.06,-0.53,10.01
6585.0,0.12,-0.57,10.05
6598.0,0.22,-0.51,10.15
6611.0,0.24,-0.5,10.21
6624.0,0.21,-0.45,10.12
6637.0,0.13,-0.41,9.95
6650.0,0.1,-0.36,9.85
6662.0,0.08,-0.35,9.9
6675.0,0.12,-0.38,10.01
6688.0,0.19,-0.42,10.07
6701.0,0.19,-0.48,9.99
6714.0,0.16,-0.48,9.93
6727.0,0.14,-0.49,9.97
6740.0,0.12,-0.48,9.98
6752.0,0.11,-0.46,9.99
6765.0,0.14,-0.47,10.07
6778.0,0.15,-0.54,10.12
6791.0,0.17,-0.6,10.11
6804.0,0.17,-0.63,10.01
6817.0,0.19,-0.59,9.99
6830.0,0.18,-0.51,10.13
6842.0,0.12,-0.5,10.19
6855.0,0.11,-0.49,10.21
6868.0,0.14,-0.46,10.16
6881.0,0.14,-0.47,9.96
6894.0,0.14,-0.44,9.84
6907.0,0.12,-0.44,9.93
6920.0,0.21,-0.5,10.12
6932.0,0.27,-0.55,10.23
6945.0,0.24,-0.58,10.18
6958.0,0.15,-0.53,10.04
6971.0,0.1,-0.46,9.99
6984.0,0.13,-0.46,10.02
6997.0,0.13,-0.5,10.03
7010.0,0.08,-0.55,9.93
7022.0,0.08,-0.48,9.9
7035.0,0.14,-0.39,9.98
7048.0,0.2,-0.4,10.02
7061.0,0.21,-0.44,10.12
7074.0,0.21,-0.51,10.25
7087.0,0.15,-0.57,10.3
7100.0,0.09,-0.62,10.26
7112.0,0.07,-0.59,10.16
7125.0,0.07,-0.52,10.02
7138.0,0.15,-0.44,9.91
7151.0,0.17,-0.4,9.84
7164.0,0.13,-0.38,9.77
7177.0,0.14,-0.39,9.88
7190.0,0.18,-0.44,10.06
7202.0,0.29,-0.46,10.29
7215.0,0.35,-0.44,10.25
7228.0,0.32,-0.42,10.09
7241.0,0.38,-0.42,10.15
7254.0,0.33,-0.45,10.15
7267.0,0.25,-0.45,10.13
7280.0,0.23,-0.43,9.96
7292.0,0.17,-0.41,9.8
7305.0,0.14,-0.43,9.77
7318.0,0.11,-0.42,9.86
7331.0,0.13,-0.42,10.04
7344.0,0.14,-0.48,10.22
7357.0,0.17,-0.49,10.3
7370.0,0.14,-0.49,10.28
7382.0,0.11,-0.48,10.18
7395.0,0.11,-0.41,10.01
7408.0,0.14,-0.36,9.88
7421.0,0.16,-0.35,9.89
7434.0,0.2,-0.4,9.97
7447.0,0.17,-0.45,10.01
7460.0,0.16,-0.5,10.07
7472.0,0.14,-0.49,10.08
7485.0,0.16,-0.48,10.13
7498.0,0.18,-0.49,10.11
7511.0,0.19,-0.48,10.1
7524.0,0.2,-0.44,10.11
7537.0,0.23,-0.45,10.1
7550.0,0.24,-0.48,10.09
7562.0,0.23,-0.52,10.05
7575.0,0.2,-0.51,10.04
7588.0,0.19,-0.48,10.09
7601.0,0.22,-0.44,10.13
7614.0,0.23,-0.43,10.12
7627.0,0.22,-0.37,10.01
7640.0,0.21,-0.37,9.94
7652.0,0.24,-0.4,10.02
7665.0,0.27,-0.44,10.13
7678.0,0.24,-0.51,10.16
7691.0,0.19,-0.49,10.09
7704.0,0.2,-0.42,9.97
7717.0,0.23,-0.38,9.87
7730.0,0.25,-0.37,9.87
7742.0,0.26,-0.41,9.92
7755.0,0.23,-0.48,10.04
7768.0,0.22,-0.54,10.15
7781.0,0.2,-0.56,10.2
7794.0,0.24,-0.51,10.12
7807.0,0.33,-0.47,10.07
7820.0,0.34,-0.4,10.07
7832.0,0.29,-0.35,10.07
7845.0,0.19,-0.34,10.08
7858.0,0.11,-0.38,10.15
7871.0,0.13,-0.41,10.16
7884.0,0.17,-0.42,10.11
7897.0,0.22,-0.44,9.97
7910.0,0.19,-0.44,9.93
7922.0,0.17,-0.46,10.04
7935.0,0.18,-0.51,10.21
7948.0,0.15,-0.56,10.24
7961.0,0.16,-0.53,10.15
7974.0,0.22,-0.47,10.0
7987.0,0.28,-0.42,9.92
8000.0,0.3,-0.44,9.87
8012.0,0.31,-0.47,9.88
8025.0,0.28,-0.46,9.95
8038.0,0.29,-0.48,10.04
8051.0,0.26,-0.49,10.1
8064.0,0.22,-0.49,10.13
8077.0,0.2,-0.5,10.22
8090.0,0.19,-0.47,10.21
8102.0,0.19,-0.44,10.09
8115.0,0.22,-0.4,10.01
8128.0,0.24,-0.36,9.93
8141.0,0.27,-0.34,9.93
8154.0,0.28,-0.4,10.0
8167.0,0.32,-0.41,10.07
8180.0,0.31,-0.48,10.11
8192.0,0.3,-0.49,10.17
8205.0,0.25,-0.52,10.24
8218.0,0.18,-0.53,10.16
8231.0,0.15,-0.5,10.01
8244.0,0.16,-0.43,9.94
8257.0,0.2,-0.37,9.94
8270.0,0.23,-0.37,9.9
8282.0,0.25,-0.38,9.98
8295.0,0.23,-0.43,10.06
8308.0,0.23,-0.46,10.12
8321.0,0.21,-0.48,10.14
8334.0,0.21,-0.48,10.08
8347.0,0.22,-0.43,10.01
8360.0,0.26,-0.41,10.01
8372.0,0.3,-0.43,10.09
8385.0,0.28,-0.53,10.13
8398.0,0.27,-0.54,10.08
8411.0,0.29,-0.52,10.11
8424.0,0.33,-0.49,10.13
8437.0,0.34,-0.46,10.05
8450.0,0.31,-0.41,10.02
8462.0,0.31,-0.4,9.98
8475.0,0.28,-0.42,9.98
8488.0,0.21,-0.49,10.03
8501.0,0.17,-0.5,10.08
8514.0,0.17,-0.53,10.1
8527.0,0.21,-0.48,10.09
8540.0,0.23,-0.43,10.05
8552.0,0.22,-0.38,10.0
8565.0,0.22,-0.41,10.01
8578.0,0.23,-0.43,9.96
8591.0,0.23,-0.46,10.02
8604.0,0.26,-0.47,10.03
8617.0,0.26,-0.46,10.07
8630.0,0.29,-0.4,10.1
8642.0,0.3,-0.41,10.11
8655.0,0.32,-0.48,10.11
8668.0,0.31,-0.48,10.07
8681.0,0.29,-0.51,10.01
8694.0,0.24,-0.5,9.94
8707.0,0.21,-0.45,9.85
8720.0,0.2,-0.39,9.84
8732.0,0.2,-0.43,9.91
8745.0,0.29,-0.44,10.12
8758.0,0.32,-0.51,10.25
8771.0,0.38,-0.53,10.31
8784.0,0.36,-0.51,10.17
8797.0,0.29,-0.47,10.11
8810.0,0.23,-0.49,10.09
8822.0,0.19,-0.54,10.08
8835.0,0.16,-0.55,10.05
8848.0,0.2,-0.54,10.04
8861.0,0.26,-0.46,10.04
8874.0,0.3,-0.44,10.03
8887.0,0.31,-0.45,10.09
8900.0,0.3,-0.53,10.14
8912.0,0.25,-0.57,10.11
8925.0,0.25,-0.56,10.04
8938.0,0.28,-0.54,10.01
8951.0,0.3,-0.52,10.05
8964.0,0.32,-0.5,10.07
8977.0,0.32,-0.5,10.1
8990.0,0.31,-0.5,10.06
9002.0,0.3,-0.5,10.05
9015.0,0.3,-0.51,10.08
9028.0,0.3,-0.52,10.06
9041.0,0.26,-0.53,10.01
9054.0,0.31,-0.47,10.02
9067.0,0.25,-0.46,9.93
9080.0,0.19,-0.47,9.86
9092.0,0.23,-0.5,9.82
9105.0,0.2,-0.5,9.93
9118.0,0.38,-0.55,10.28
9131.0,0.39,-0.61,10.41
9144.0,0.33,-0.59,10.29
9157.0,0.21,-0.53,10.19
9170.0,0.17,-0.49,10.1
9182.0,0.2,-0.52,10.04
9195.0,0.25,-0.54,10.01
9208.0,0.29,-0.54,10.02
9221.0,0.31,-0.55,9.98
9234.0,0.26,-0.53,9.91
9247.0,0.28,-0.48,9.97
9260.0,0.32,-0.45,10.11
9272.0,0.33,-0.51,10.16
9285.0,0.29,-0.51,10.09
9298.0,0.22,-0.53,10.05
9311.0,0.23,-0.55,10.06
9324.0,0.27,-0.58,10.03
9337.0,0.28,-0.57,10.03
9350.0,0.32,-0.56,10.09
9362.0,0.37,-0.57,10.13
9375.0,0.37,-0.56,10.15
9388.0,0.33,-0.53,10.1
9401.0,0.28,-0.5,10.07
9414.0,0.26,-0.5,10.05
9427.0,0.23,-0.54,10.1
9440.0,0.23,-0.58,10.09
9452.0,0.23,-0.55,10.14
9465.0,0.2,-0.49,10.07
9478.0,0.25,-0.46,10.01
9491.0,0.29,-0.44,9.92
9504.0,0.25,-0.44,9.92
9517.0,0.21,-0.42,9.89
9530.0,0.19,-0.42,9.94
9542.0,0.2,-0.45,10.02
9555.0,0.24,-0.49,10.1
9568.0,0.2,-0.51,10.13
9581.0,0.22,-0.51,10.1
9594.0,0.24,-0.49,10.05
9607.0,0.26,-0.48,10.02
9620.0,0.24,-0.47,9.99
9632.0,0.24,-0.48,9.98
9645.0,0.25,-0.46,10.01
9658.0,0.29,-0.43,10.04
9671.0,0.38,-0.45,10.17
9684.0,0.34,-0.54,10.19
9697.0,0.23,-0.61,10.15
9710.0,0.08,-0.61,10.06
9722.0,0.05,-0.58,10.06
9735.0,0.09,-0.53,10.04
9748.0,0.18,-0.49,10.02
9761.0,0.28,-0.44,9.98
9774.0,0.31,-0.42,9.95
9787.0,0.32,-0.43,9.96
9800.0,0.29,-0.46,10.04
9812.0,0.27,-0.48,10.13
9825.0,0.22,-0.5,10.17
9838.0,0.16,-0.52,10.1
9851.0,0.14,-0.51,10.02
9864.0,0.15,-0.49,9.98
9877.0,0.2,-0.45,10.01
9890.0,0.22,-0.46,10.07
9902.0,0.2,-0.51,10.1
9915.0,0.2,-0.56,10.2
9928.0,0.23,-0.56,10.21
9941.0,0.23,-0.55,10.07
9954.0,0.23,-0.49,9.9
9967.0,0.25,-0.41,9.87
9980.0,0.23,-0.39,9.95
9992.0,0.24,-0.4,10.03
10005.0,0.25,-0.43,10.14
10018.0,0.29,-0.5,10.22
10031.0,0.34,-0.52,10.25
10044.0,0.29,-0.51,10.21
10057.0,0.26,-0.54,10.2
10070.0,0.23,-0.54,10.2
10082.0,0.19,-0.53,10.13
10095.0,0.15,-0.51,10.05
10108.0,0.14,-0.41,9.95
10121.0,0.08,-0.36,9.93
10134.0,0.1,-0.37,10.03
10147.0,0.11,-0.39,9.99
10160.0,0.11,-0.38,9.95
10172.0,0.16,-0.35,9.94
10185.0,0.21,-0.35,9.98
10198.0,0.21,-0.36,9.91
10211.0,0.18,-0.36,9.78
10224.0,0.18,-0.36,9.88
10237.0,0.22,-0.38,10.01
10250.0,0.28,-0.44,10.15
10262.0,0.32,-0.5,10.28
10275.0,0.34,-0.53,10.32
10288.0,0.31,-0.52,10.23
10301.0,0.3,-0.48,10.12
10314.0,0.29,-0.43,10.01
10327.0,0.25,-0.43,9.92
10340.0,0.22,-0.42,9.93
10352.0,0.17,-0.41,9.95
10365.0,0.18,-0.42,10.01
10378.0,0.21,-0.44,10.1
10391.0,0.2,-0.42,10.13
10404.0,0.2,-0.4,10.1
10417.0,0.2,-0.42,10.07
10430.0,0.16,-0.41,10.03
10442.0,0.19,-0.4,10.0
10455.0,0.23,-0.4,10.05
10468.0,0.26,-0.41,10.08
10481.0,0.29,-0.42,10.12
10494.0,0.28,-0.42,10.1
10507.0,0.24,-0.45,9.99
10520.0,0.2,-0.44,9.93
10532.0,0.2,-0.4,10.0
10545.0,0.22,-0.38,10.1
10558.0,0.3,-0.38,10.19
10571.0,0.39,-0.37,10.18
10584.0,0.39,-0.38,10.05
10597.0,0.38,-0.41,9.98
10610.0,0.36,-0.45,10.0
10622.0,0.32,-0.51,10.03
10635.0,0.2,-0.57,10.06
10648.0,0.06,-0.62,10.12
10661.0,-0.08,-0.65,10.11
10674.0,-0.13,-0.65,10.14
10687.0,-0.07,-0.61,10.18
10700.0,0.04,-0.51,10.14
10712.0,0.14,-0.4,10.05
10725.0,0.2,-0.27,9.97
10738.0,0.25,-0.2,9.86
10751.0,0.33,-0.25,9.83
10764.0,0.38,-0.32,9.94
10777.0,0.33,-0.48,10.07
10790.0,0.25,-0.59,10.13
10802.0,0.17,-0.64,10.19
10815.0,0.11,-0.66,10.23
10828.0,0.12,-0.59,10.16
10841.0,0.13,-0.45,9.97
10854.0,0.19,-0.33,9.81
10867.0,0.24,-0.27,9.74
10880.0,0.28,-0.27,9.83
10892.0,0.24,-0.38,10.03
10905.0,0.14,-0.52,10.2
10918.0,0.1,-0.62,10.32
10931.0,0.08,-0.66,10.36
10944.0,0.1,-0.63,10.34
10957.0,0.11,-0.59,10.22
10970.0,0.14,-0.52,10.04
10982.0,0.17,-0.43,9.91
10995.0,0.23,-0.36,9.91
11008.0,0.3,-0.33,9.98
11021.0,0.36,-0.34,10.04
11034.0,0.37,-0.37,10.08
11047.0,0.28,-0.41,10.05
11060.0,0.19,-0.47,10.01
11072.0,0.09,-0.49,10.06
11085.0,0.08,-0.53,10.1
11098.0,0.07,-0.55,10.14
11111.0,0.11,-0.52,10.14
11124.0,0.18,-0.5,10.1
11137.0,0.18,-0.45,10.0
11150.0,0.2,-0.37,9.9
11162.0,0.2,-0.35,9.91
11175.0,0.27,-0.37,10.0
11188.0,0.26,-0.41,10.1
11201.0,0.28,-0.47,10.13
11214.0,0.23,-0.48,10.08
11227.0,0.23,-0.46,10.04
11240.0,0.19,-0.43,10.02
11252.0,0.2,-0.43,10.09
11265.0,0.19,-0.43,10.11
11278.0,0.15,-0.42,10.05
11291.0,0.09,-0.41,10.0
11304.0,0.06,-0.39,9.95
11317.0,0.14,-0.4,10.01
11330.0,0.25,-0.41,10.12
11342.0,0.32,-0.42,10.17
11355.0,0.32,-0.42,10.11
11368.0,0.24,-0.45,10.05
11381.0,0.18,-0.49,9.96
11394.0,0.12,-0.48,9.92
11407.0,0.1,-0.44,9.98
11420.0,0.12,-0.42,10.02
11432.0,0.15,-0.4,10.05
11445.0,0.17,-0.4,10.03
11458.0,0.14,-0.47,10.09
11471.0,0.12,-0.54,10.09
11484.0,0.04,-0.64,10.17
11497.0,-0.01,-0.74,10.44
11510.0,0.15,-0.77,10.64
11523.0,0.21,-0.54,10.36
11535.0,0.22,-0.28,10.04
11548.0,0.16,-0.08,9.8
11561.0,0.25,0.01,9.65
11574.0,0.42,0.02,9.6
11587.0,0.57,0.01,9.65
11600.0,0.54,-0.08,9.8
11612.0,0.43,-0.23,10.03
11625.0,0.3,-0.41,10.19
11638.0,0.19,-0.52,10.26
11651.0,0.11,-0.54,10.25
11664.0,0.03,-0.54,10.17
11677.0,0.02,-0.5,10.08
11690.0,0.05,-0.46,9.99
11702.0,0.09,-0.46,9.92
11715.0,0.12,-0.41,9.94
11728.0,0.13,-0.38,9.97
11741.0,0.22,-0.36,10.09
11754.0,0.27,-0.35,10.17
11767.0,0.3,-0.36,10.18
11780.0,0.27,-0.33,10.12
11792.0,0.2,-0.34,10.07
11805.0,0.14,-0.36,10.02
11818.0,0.09,-0.4,10.02
11831.0,0.06,-0.46,10.05
11844.0,0.09,-0.48,10.07
11857.0,0.16,-0.46,10.14
11870.0,0.23,-0.47,10.16
11882.0,0.29,-0.42,10.13
11895.0,0.3,-0.36,10.08
11908.0,0.28,-0.33,9.98
11921.0,0.26,-0.36,10.0
11934.0,0.23,-0.38,10.04
11947.0,0.2,-0.43,10.11
11960.0,0.17,-0.43,10.11
11972.0,0.11,-0.42,10.03
11985.0,0.04,-0.4,9.92
11998.0,0.02,-0.38,9.91
12011.0,0.0,-0.41,10.03
12024.0,0.05,-0.45,10.12
12037.0,0.06,-0.51,10.14
12050.0,-0.02,-0.62,10.11
12063.0,-0.1,-0.68,10.08
12075.0,-0.07,-0.64,10.08
12088.0,0.11,-0.51,10.19
12101.0,0.36,-0.32,10.21
12114.0,0.52,-0.15,10.13
12127.0,0.57,-0.04,10.03
12140.0,0.56,-0.0,9.92
12153.0,0.51,-0.1,9.95
12165.0,0.45,-0.2,10.01
12178.0,0.37,-0.31,10.1
12191.0,0.25,-0.43,10.16
12204.0,0.16,-0.48,10.17
12217.0,0.14,-0.54,10.16
12230.0,0.14,-0.51,10.08
12243.0,0.18,-0.44,10.04
12255.0,0.23,-0.36,10.0
12268.0,0.23,-0.3,9.93
12281.0,0.21,-0.31,9.91
12294.0,0.17,-0.31,9.94
12307.0,0.17,-0.34,10.07
12320.0,0.18,-0.4,10.16
12333.0,0.19,-0.41,10.24
12345.0,0.2,-0.41,10.19
12358.0,0.23,-0.38,10.1
12371.0,0.27,-0.34,10.09
12384.0,0.26,-0.34,10.12
12397.0,0.23,-0.33,10.1
12410.0,0.18,-0.34,10.06
12423.0,0.14,-0.37,10.04
12435.0,0.16,-0.37,9.99
12448.0,0.14,-0.36,9.97
12461.0,0.14,-0.36,9.95
12474.0,0.17,-0.34,10.03
12487.0,0.27,-0.35,10.12
12500.0,0.3,-0.34,10.16
12513.0,0.27,-0.36,10.08
12525.0,0.23,-0.39,10.03
12538.0,0.15,-0.4,10.0
12551.0,0.13,-0.37,9.95
12564.0,0.11,-0.35,9.98
12577.0,0.15,-0.35,10.11
12590.0,0.13,-0.38,10.17
12603.0,0.12,-0.39,10.19
12615.0,0.16,-0.39,10.11
12628.0,0.17,-0.38,10.06
12641.0,0.19,-0.33,9.96
12654.0,0.21,-0.29,9.9
12667.0,0.21,-0.26,9.88
12680.0,0.23,-0.26,10.0
12693.0,0.24,-0.28,10.09
12705.0,0.28,-0.31,10.13
12718.0,0.24,-0.37,10.15
12731.0,0.14,-0.41,10.19
12744.0,0.06,-0.46,10.19
12757.0,0.04,-0.46,10.13
12770.0,0.06,-0.38,10.0
12783.0,0.1,-0.29,9.9
12795.0,0.18,-0.25,9.98
12808.0,0.27,-0.28,10.08
12821.0,0.33,-0.3,10.11
12834.0,0.34,-0.33,10.08
12847.0,0.25,-0.34,10.0
