timestamp,accX,accY,accZ
2.0,-0.15,-1.33,9.64
15.0,-0.06,-1.1,7.89
28.0,-0.12,-1.34,9.44
41.0,-0.16,-1.43,9.76
54.0,-0.27,-1.46,9.88
67.0,-0.33,-1.52,9.96
79.0,-0.27,-1.55,10.03
92.0,-0.15,-1.53,10.01
105.0,-0.11,-1.49,9.95
118.0,-0.17,-1.48,9.93
131.0,-0.24,-1.51,10.0
144.0,-0.25,-1.54,10.06
157.0,-0.22,-1.54,10.0
170.0,-0.31,-1.5,9.87
182.0,-0.35,-1.46,9.75
195.0,-0.33,-1.46,9.76
208.0,-0.2,-1.49,9.87
221.0,-0.17,-1.5,9.93
234.0,-0.15,-1.54,10.03
247.0,-0.14,-1.55,10.02
260.0,-0.16,-1.55,10.03
273.0,-0.16,-1.59,10.08
285.0,-0.18,-1.58,10.03
298.0,-0.25,-1.59,10.0
311.0,-0.22,-1.55,9.88
324.0,-0.19,-1.51,9.81
337.0,-0.27,-1.47,9.78
350.0,-0.22,-1.44,9.77
363.0,-0.16,-1.5,9.85
376.0,-0.24,-1.56,9.98
388.0,-0.3,-1.65,10.08
401.0,-0.26,-1.61,10.01
414.0,-0.24,-1.57,9.9
427.0,-0.2,-1.59,9.91
440.0,-0.14,-1.6,9.88
453.0,-0.1,-1.56,9.86
466.0,-0.22,-1.58,9.91
479.0,-0.23,-1.63,10.05
491.0,-0.35,-1.58,9.93
504.0,-0.27,-1.57,9.93
517.0,-0.31,-1.48,9.88
530.0,-0.19,-1.46,10.01
543.0,-0.16,-1.41,9.98
556.0,-0.15,-1.35,9.96
569.0,-0.16,-1.33,9.95
582.0,-0.16,-1.3,9.92
594.0,-0.19,-1.33,9.91
607.0,-0.28,-1.35,9.9
620.0,-0.23,-1.35,9.9
633.0,-0.27,-1.3,9.76
646.0,-0.28,-1.35,9.87
659.0,-0.19,-1.37,9.94
672.0,-0.17,-1.38,9.98
685.0,-0.19,-1.44,10.0
697.0,-0.22,-1.46,9.94
710.0,-0.25,-1.47,9.88
723.0,-0.26,-1.47,9.92
736.0,-0.31,-1.56,9.98
749.0,-0.31,-1.59,10.06
762.0,-0.27,-1.57,10.03
775.0,-0.2,-1.48,9.91
788.0,-0.13,-1.38,9.76
800.0,-0.21,-1.4,9.81
813.0,-0.2,-1.48,9.95
826.0,-0.25,-1.67,10.26
839.0,-0.25,-1.85,10.46
852.0,-0.15,-1.86,10.46
865.0,-0.16,-1.75,10.3
878.0,-0.25,-1.56,10.0
891.0,-0.33,-1.38,9.63
903.0,-0.34,-1.24,9.39
916.0,-0.43,-1.2,9.25
929.0,-0.46,-1.27,9.39
942.0,-0.26,-1.34,9.67
955.0,-0.14,-1.46,10.02
968.0,-0.06,-1.53,10.36
981.0,-0.03,-1.56,10.44
994.0,-0.01,-1.53,10.33
1006.0,-0.12,-1.49,10.04
1019.0,-0.24,-1.41,9.76
1032.0,-0.37,-1.4,9.63
1045.0,-0.46,-1.46,9.62
1058.0,-0.45,-1.49,9.71
1071.0,-0.36,-1.47,9.72
1084.0,-0.25,-1.39,9.6
1097.0,-0.33,-1.48,9.84
1109.0,-0.35,-1.62,10.19
1122.0,-0.4,-1.76,10.51
1135.0,-0.36,-1.71,10.41
1148.0,-0.32,-1.57,10.16
1161.0,-0.32,-1.37,9.8
1174.0,-0.25,-1.19,9.57
1187.0,-0.41,-1.11,9.42
1200.0,-0.7,-1.12,9.45
1212.0,-0.72,-1.18,9.51
1225.0,-0.57,-1.24,9.67
1238.0,-0.41,-1.34,9.93
1251.0,-0.27,-1.5,10.3
1264.0,-0.11,-1.62,10.59
1277.0,0.01,-1.6,10.61
1290.0,0.07,-1.54,10.46
1303.0,0.0,-1.42,10.15
1315.0,-0.1,-1.31,9.79
1328.0,-0.26,-1.25,9.53
1341.0,-0.23,-1.29,9.57
1354.0,-0.23,-1.45,9.69
1367.0,-0.15,-1.55,9.9
1380.0,0.03,-1.58,9.95
1393.0,0.07,-1.65,9.98
1405.0,0.03,-1.75,10.0
1418.0,0.01,-1.79,9.96
1431.0,-0.12,-1.79,9.91
1444.0,-0.32,-1.73,9.86
1457.0,-0.38,-1.62,9.71
1470.0,-0.33,-1.55,9.71
1483.0,-0.33,-1.52,9.78
1496.0,-0.37,-1.55,9.96
1508.0,-0.36,-1.59,10.06
1521.0,-0.38,-1.61,10.1
1534.0,-0.41,-1.54,10.08
1547.0,-0.33,-1.5,10.03
1560.0,-0.34,-1.48,10.06
1573.0,-0.35,-1.49,10.0
1586.0,-0.36,-1.43,9.91
1599.0,-0.38,-1.37,9.69
1611.0,-0.45,-1.37,9.51
1624.0,-0.43,-1.4,9.52
1637.0,-0.31,-1.42,9.57
1650.0,-0.27,-1.5,9.65
1663.0,-0.31,-1.59,9.77
1676.0,-0.38,-1.64,9.88
1689.0,-0.35,-1.73,10.07
1702.0,-0.34,-1.78,10.15
1714.0,-0.32,-1.78,10.18
1727.0,-0.29,-1.72,10.18
1740.0,-0.3,-1.74,10.22
1753.0,-0.38,-1.75,10.32
1766.0,-0.38,-1.73,10.28
1779.0,-0.18,-1.67,10.22
1792.0,-0.25,-1.49,9.93
1805.0,-0.38,-1.42,9.82
1817.0,-0.44,-1.36,9.74
1830.0,-0.43,-1.38,9.82
1843.0,-0.34,-1.36,9.91
1856.0,-0.35,-1.27,9.75
1869.0,-0.2,-1.18,9.66
1882.0,-0.12,-1.11,9.68
1895.0,-0.2,-1.21,9.82
1908.0,-0.2,-1.38,10.04
1920.0,-0.16,-1.47,10.1
1933.0,-0.22,-1.53,9.99
1946.0,-0.28,-1.51,9.81
1959.0,-0.26,-1.5,9.67
1972.0,-0.33,-1.5,9.61
1985.0,-0.35,-1.54,9.7
1998.0,-0.28,-1.62,9.9
2011.0,-0.27,-1.65,10.1
2023.0,-0.29,-1.68,10.24
2036.0,-0.26,-1.67,10.3
2049.0,-0.13,-1.67,10.39
2062.0,-0.07,-1.48,10.12
2075.0,-0.17,-1.41,10.01
2088.0,-0.36,-1.37,9.89
2101.0,-0.31,-1.33,9.9
2114.0,-0.26,-1.27,9.78
2126.0,-0.37,-1.22,9.63
2139.0,-0.46,-1.25,9.58
2152.0,-0.23,-1.27,9.71
2165.0,-0.0,-1.37,9.93
2178.0,0.05,-1.43,10.09
2191.0,-0.04,-1.5,10.18
2204.0,-0.17,-1.59,10.24
2217.0,-0.16,-1.62,10.22
2229.0,-0.2,-1.49,9.94
2242.0,-0.32,-1.35,9.57
2255.0,-0.43,-1.22,9.21
2268.0,-0.36,-1.14,9.15
2281.0,-0.16,-1.1,9.06
2294.0,0.01,-1.37,9.69
2307.0,-0.02,-1.69,10.35
2320.0,-0.24,-1.66,10.23
2332.0,-0.21,-1.79,10.52
2345.0,-0.05,-1.84,10.66
2358.0,-0.0,-1.7,10.47
2371.0,-0.02,-1.57,10.22
2384.0,-0.23,-1.56,10.04
2397.0,-0.33,-1.62,10.01
2410.0,-0.34,-1.63,9.98
2423.0,-0.33,-1.61,9.93
2435.0,-0.35,-1.63,9.91
2448.0,-0.28,-1.58,9.8
2461.0,-0.18,-1.54,9.79
2474.0,-0.14,-1.54,9.84
2487.0,-0.04,-1.55,9.94
2500.0,-0.06,-1.57,9.96
2513.0,-0.09,-1.53,9.96
2526.0,-0.18,-1.55,10.01
2538.0,-0.26,-1.53,9.92
2551.0,-0.3,-1.52,9.82
2564.0,-0.28,-1.47,9.76
2577.0,-0.24,-1.43,9.73
2590.0,-0.19,-1.43,9.82
2603.0,-0.23,-1.46,9.87
2616.0,-0.29,-1.54,9.95
2629.0,-0.35,-1.58,9.95
2641.0,-0.39,-1.61,9.93
2654.0,-0.36,-1.61,9.96
2667.0,-0.36,-1.61,9.93
2680.0,-0.36,-1.61,9.96
2693.0,-0.37,-1.59,9.89
2706.0,-0.32,-1.58,9.85
2719.0,-0.23,-1.57,9.85
2732.0,-0.16,-1.55,9.93
2744.0,-0.19,-1.58,10.0
2757.0,-0.23,-1.61,10.08
2770.0,-0.21,-1.62,10.03
2783.0,-0.19,-1.57,9.97
2796.0,-0.23,-1.49,9.75
2809.0,-0.31,-1.5,9.71
2822.0,-0.3,-1.52,9.77
2835.0,-0.39,-1.59,9.92
2847.0,-0.46,-1.69,10.05
2860.0,-0.48,-1.65,10.04
2873.0,-0.42,-1.56,10.0
2886.0,-0.3,-1.49,9.91
2899.0,-0.21,-1.4,9.84
2912.0,-0.33,-1.43,9.83
2925.0,-0.37,-1.49,9.9
2938.0,-0.34,-1.54,9.98
2950.0,-0.31,-1.56,9.94
2963.0,-0.24,-1.51,9.84
2976.0,-0.22,-1.46,9.69
2989.0,-0.24,-1.44,9.62
3002.0,-0.24,-1.48,9.67
3015.0,-0.29,-1.57,9.85
3028.0,-0.32,-1.64,10.01
3041.0,-0.2,-1.66,10.19
3053.0,-0.2,-1.67,10.25
3066.0,-0.28,-1.65,10.17
3079.0,-0.31,-1.6,10.09
3092.0,-0.35,-1.59,10.02
3105.0,-0.32,-1.54,9.95
3118.0,-0.32,-1.52,9.9
3131.0,-0.33,-1.41,9.75
3144.0,-0.36,-1.36,9.69
3156.0,-0.33,-1.38,9.74
3169.0,-0.32,-1.45,9.88
3182.0,-0.26,-1.51,10.02
3195.0,-0.17,-1.53,10.11
3208.0,-0.21,-1.53,10.09
3221.0,-0.2,-1.47,10.02
3234.0,-0.22,-1.43,9.89
3247.0,-0.25,-1.43,9.89
3259.0,-0.22,-1.36,9.79
3272.0,-0.2,-1.3,9.68
3285.0,-0.24,-1.34,9.74
3298.0,-0.19,-1.39,9.86
3311.0,-0.13,-1.46,9.98
3324.0,-0.1,-1.57,10.2
3337.0,-0.03,-1.62,10.32
3350.0,-0.09,-1.58,10.2
3362.0,-0.19,-1.51,9.99
3375.0,-0.28,-1.43,9.83
3388.0,-0.39,-1.4,9.71
3401.0,-0.45,-1.42,9.7
3414.0,-0.42,-1.42,9.72
3427.0,-0.32,-1.4,9.73
3440.0,-0.24,-1.38,9.82
3453.0,-0.2,-1.41,10.0
3465.0,-0.2,-1.5,10.21
3478.0,-0.2,-1.54,10.27
3491.0,-0.22,-1.51,10.14
3504.0,-0.28,-1.44,9.89
3517.0,-0.31,-1.39,9.66
3530.0,-0.42,-1.4,9.63
3543.0,-0.39,-1.48,9.8
3556.0,-0.29,-1.56,10.02
3568.0,-0.22,-1.59,10.12
3581.0,-0.28,-1.59,10.1
3594.0,-0.36,-1.54,9.97
3607.0,-0.35,-1.44,9.76
3620.0,-0.3,-1.32,9.52
3633.0,-0.28,-1.34,9.57
3646.0,-0.17,-1.37,9.68
3659.0,-0.08,-1.41,9.91
3671.0,-0.05,-1.45,10.01
3684.0,-0.14,-1.53,10.18
3697.0,-0.22,-1.57,10.21
3710.0,-0.31,-1.67,10.33
3723.0,-0.27,-1.63,10.25
3736.0,-0.25,-1.56,10.07
3749.0,-0.25,-1.52,9.97
3762.0,-0.29,-1.45,9.84
3774.0,-0.33,-1.41,9.68
3787.0,-0.42,-1.44,9.63
3800.0,-0.48,-1.49,9.68
3813.0,-0.41,-1.54,9.73
3826.0,-0.33,-1.6,9.81
3839.0,-0.2,-1.65,9.96
3852.0,-0.18,-1.71,10.11
3865.0,-0.27,-1.73,10.09
3877.0,-0.3,-1.7,10.13
3890.0,-0.26,-1.65,10.04
3903.0,-0.31,-1.59,9.91
3916.0,-0.36,-1.49,9.74
3929.0,-0.37,-1.44,9.73
3942.0,-0.3,-1.46,9.85
3955.0,-0.16,-1.47,10.01
3968.0,-0.21,-1.47,10.01
3980.0,-0.26,-1.45,9.94
3993.0,-0.29,-1.44,9.88
4006.0,-0.28,-1.45,9.84
4019.0,-0.25,-1.44,9.8
4032.0,-0.25,-1.5,9.89
4045.0,-0.23,-1.56,10.06
4058.0,-0.15,-1.56,10.09
4071.0,-0.13,-1.55,10.07
4083.0,-0.21,-1.5,9.96
4096.0,-0.25,-1.51,9.93
4109.0,-0.28,-1.55,9.92
4122.0,-0.3,-1.57,9.71
4135.0,-0.42,-1.63,9.53
4148.0,-0.41,-1.68,9.52
4161.0,-0.42,-1.67,9.6
4174.0,-0.45,-1.72,9.79
4186.0,-0.48,-1.77,10.03
4199.0,-0.4,-1.78,10.12
4212.0,-0.29,-1.73,10.2
4225.0,-0.21,-1.66,10.22
4238.0,-0.24,-1.59,10.24
4251.0,-0.23,-1.56,10.3
4264.0,-0.14,-1.46,10.23
4277.0,-0.12,-1.34,10.04
4289.0,-0.18,-1.26,9.91
4302.0,-0.19,-1.22,9.76
4315.0,-0.17,-1.27,9.82
4328.0,-0.11,-1.23,9.69
4341.0,-0.05,-1.2,9.71
4354.0,0.02,-1.2,9.84
4367.0,0.01,-1.3,10.06
4379.0,-0.06,-1.38,10.15
4392.0,-0.12,-1.38,10.03
4405.0,-0.22,-1.4,9.93
4418.0,-0.26,-1.29,9.67
4431.0,-0.31,-1.27,9.58
4444.0,-0.41,-1.43,9.81
4457.0,-0.22,-1.53,10.13
4470.0,-0.14,-1.61,10.33
4482.0,-0.25,-1.56,10.24
4495.0,-0.27,-1.43,10.01
4508.0,-0.29,-1.32,9.81
4521.0,-0.28,-1.36,9.9
4534.0,-0.14,-1.39,9.91
4547.0,-0.07,-1.42,9.96
4560.0,0.11,-1.37,9.96
4573.0,0.02,-1.35,9.9
4585.0,-0.04,-1.37,9.88
4598.0,-0.06,-1.41,9.89
4611.0,-0.08,-1.44,9.87
4624.0,-0.13,-1.49,9.97
4637.0,-0.06,-1.56,10.19
4650.0,0.11,-1.29,9.77
4663.0,-0.02,-1.19,9.55
4676.0,-0.29,-1.3,9.72
4688.0,-0.37,-1.48,10.05
4701.0,-0.44,-1.73,10.48
4714.0,-0.51,-1.83,10.59
4727.0,-0.61,-1.92,10.68
4740.0,-0.52,-1.84,10.55
4753.0,-0.43,-1.75,10.45
4766.0,-0.48,-1.65,10.21
4779.0,-0.42,-1.54,10.01
4791.0,-0.39,-1.48,9.93
4804.0,-0.28,-1.21,9.43
4817.0,-0.27,-1.03,9.07
4830.0,-0.01,-0.7,8.74
4843.0,0.04,-0.65,8.89
4856.0,-0.03,-0.89,9.52
4869.0,0.06,-1.09,10.05
4881.0,0.31,-1.18,10.42
4894.0,0.46,-1.1,10.46
4907.0,0.53,-0.92,10.18
4920.0,0.39,-0.89,10.02
4933.0,0.28,-0.96,10.0
4946.0,0.14,-1.03,10.02
4959.0,-0.05,-1.06,9.9
4972.0,-0.15,-1.11,9.88
4984.0,-0.15,-1.1,9.89
4997.0,-0.05,-1.05,9.86
5010.0,0.05,-0.98,9.8
5023.0,0.14,-0.96,9.83
5036.0,0.18,-0.97,9.95
5049.0,0.19,-1.05,10.09
5062.0,0.12,-1.2,10.32
5074.0,0.12,-1.26,10.31
5087.0,0.09,-1.28,10.25
5100.0,0.07,-1.16,9.98
5113.0,0.1,-1.05,9.79
5126.0,0.08,-0.99,9.72
5139.0,0.06,-0.98,9.73
5152.0,0.02,-0.97,9.78
5164.0,-0.05,-1.07,9.95
5177.0,-0.12,-1.15,10.1
5190.0,0.08,-1.23,10.16
5203.0,0.17,-1.3,10.31
5216.0,-0.1,-1.14,10.11
5229.0,-0.19,-1.26,10.24
5242.0,-0.05,-1.28,10.19
5255.0,0.02,-1.22,10.1
5267.0,-0.07,-1.13,9.9
5280.0,-0.11,-1.08,9.79
5293.0,0.04,-1.04,9.81
5306.0,0.18,-1.12,9.89
5319.0,0.2,-1.19,9.99
5332.0,0.2,-1.25,10.04
5345.0,0.25,-1.25,10.0
5357.0,0.23,-1.24,9.87
5370.0,0.14,-1.17,9.68
5383.0,0.07,-1.09,9.55
5396.0,0.01,-1.08,9.65
5409.0,-0.04,-1.1,9.79
5422.0,-0.13,-1.12,9.91
5435.0,-0.15,-1.24,10.24
5447.0,-0.03,-1.17,10.27
5460.0,-0.03,-1.13,10.17
5473.0,-0.06,-1.22,10.27
5486.0,0.01,-1.15,10.13
5499.0,-0.0,-1.16,10.03
5512.0,0.02,-1.21,10.0
5525.0,0.1,-1.22,9.93
5538.0,0.2,-1.22,9.91
5550.0,0.24,-1.15,9.73
5563.0,0.3,-1.23,9.75
5576.0,0.24,-1.26,9.81
5589.0,-0.0,-1.29,9.91
5602.0,-0.14,-1.29,9.94
5615.0,-0.12,-1.38,10.14
5628.0,-0.04,-1.36,10.19
5640.0,-0.13,-1.3,10.11
5653.0,-0.18,-1.35,10.17
5666.0,-0.09,-1.26,10.13
5679.0,-0.06,-1.2,10.07
5692.0,-0.09,-1.23,9.98
5705.0,-0.13,-1.33,9.96
5718.0,-0.13,-1.41,9.89
5731.0,-0.06,-1.44,9.84
5743.0,0.11,-1.35,9.69
5756.0,0.05,-1.39,9.7
5769.0,0.13,-1.51,9.97
5782.0,0.03,-1.46,9.96
5795.0,-0.01,-1.46,10.06
5808.0,-0.05,-1.54,10.2
5821.0,-0.13,-1.48,10.23
5834.0,-0.01,-1.42,10.14
5846.0,0.01,-1.25,9.99
5859.0,0.04,-1.16,9.97
5872.0,0.05,-1.21,10.07
5885.0,0.07,-1.3,10.22
5898.0,-0.03,-1.2,9.96
5911.0,-0.15,-1.17,9.77
5924.0,-0.12,-1.16,9.64
5936.0,0.01,-1.17,9.67
5949.0,0.09,-1.21,9.75
5962.0,0.15,-1.26,9.92
5975.0,0.17,-1.33,10.06
5988.0,0.16,-1.32,10.13
6001.0,0.09,-1.33,10.08
6014.0,-0.04,-1.38,10.1
6026.0,-0.12,-1.43,10.13
6039.0,-0.18,-1.42,10.03
6052.0,-0.27,-1.39,9.87
6065.0,-0.2,-1.37,9.86
6078.0,-0.22,-1.27,9.75
6091.0,-0.06,-1.23,9.79
6104.0,0.07,-1.24,9.91
6117.0,0.11,-1.25,10.09
6129.0,0.13,-1.27,10.14
6142.0,0.11,-1.24,10.08
6155.0,0.14,-1.23,9.94
6168.0,0.32,-1.19,9.78
6181.0,0.29,-1.18,9.69
6194.0,0.03,-1.27,9.59
6207.0,-0.07,-1.36,9.67
6219.0,0.05,-1.43,9.81
6232.0,0.12,-1.44,9.86
6245.0,0.13,-1.51,9.91
6258.0,0.12,-1.61,10.08
6271.0,0.12,-1.72,10.38
6284.0,0.07,-1.7,10.47
6297.0,-0.19,-1.66,10.46
6310.0,-0.38,-1.6,10.35
6322.0,-0.25,-1.52,10.32
6335.0,-0.08,-1.16,9.89
6348.0,0.07,-1.04,9.82
6361.0,0.08,-0.96,9.7
6374.0,0.17,-1.17,10.19
6387.0,0.31,-1.16,10.26
6400.0,0.38,-1.24,10.44
6412.0,0.45,-1.32,10.43
6425.0,0.57,-1.27,10.34
6438.0,0.65,-1.18,10.15
6451.0,0.62,-1.12,9.94
6464.0,0.52,-1.08,9.74
6477.0,0.42,-1.11,9.75
6490.0,0.36,-1.14,9.8
6502.0,0.34,-1.14,9.78
6515.0,0.34,-1.0,9.53
6528.0,0.24,-0.92,9.25
6541.0,0.28,-1.04,9.38
6554.0,0.31,-1.06,9.36
6567.0,0.38,-1.23,9.66
6580.0,0.21,-1.32,9.73
6592.0,0.03,-1.32,9.67
6605.0,-0.09,-1.3,9.68
6618.0,-0.16,-1.33,9.9
6631.0,-0.24,-1.31,10.01
6644.0,-0.27,-1.31,10.34
6657.0,-0.25,-1.35,10.72
6670.0,-0.29,-1.27,10.95
6683.0,-0.23,-1.23,11.01
6695.0,-0.05,-1.13,10.56
6708.0,0.06,-0.98,9.89
6721.0,-0.05,-1.05,9.51
6734.0,-0.15,-1.25,9.47
6747.0,-0.06,-1.6,9.93
6760.0,-0.03,-1.86,10.45
6773.0,-0.1,-1.92,10.82
6786.0,-0.1,-1.78,10.92
6798.0,0.05,-1.41,10.61
6811.0,0.11,-0.99,10.11
6824.0,0.04,-0.74,9.63
6837.0,0.06,-0.66,9.25
6850.0,0.1,-0.8,9.23
6863.0,0.09,-0.95,9.2
6876.0,0.05,-1.23,9.51
6888.0,0.01,-1.63,9.88
6901.0,-0.03,-2.0,10.31
6914.0,0.16,-1.93,10.14
6927.0,0.16,-1.64,9.63
6940.0,0.15,-1.32,9.07
6953.0,0.23,-1.09,8.81
6966.0,0.31,-1.02,8.86
6978.0,0.26,-1.13,9.29
6991.0,0.15,-1.36,9.96
7004.0,0.2,-1.6,10.67
7017.0,0.38,-1.58,10.98
7030.0,0.42,-1.48,11.02
7043.0,0.35,-1.25,10.83
7056.0,0.28,-1.05,10.63
7068.0,-0.06,-0.89,10.41
7081.0,-0.37,-0.84,10.24
7094.0,-0.44,-0.79,10.05
7107.0,-0.46,-0.66,9.85
7120.0,-0.46,-0.64,9.76
7133.0,-0.32,-0.67,9.72
7146.0,-0.13,-0.82,9.88
7159.0,0.05,-0.97,10.11
7171.0,0.09,-1.16,10.26
7184.0,0.12,-1.35,10.44
7197.0,0.15,-1.43,10.27
7210.0,0.08,-1.51,10.05
7223.0,0.12,-1.53,9.87
7236.0,0.27,-1.51,9.67
7249.0,0.25,-1.44,9.51
7261.0,0.19,-1.37,9.34
7274.0,0.22,-1.21,9.14
7287.0,0.26,-1.0,8.98
7300.0,0.15,-1.02,9.17
7313.0,0.24,-1.05,9.47
7326.0,0.37,-1.08,9.66
7339.0,0.32,-1.21,9.9
7351.0,0.24,-1.36,10.07
7364.0,0.22,-1.56,10.31
7377.0,0.2,-1.73,10.66
7390.0,0.15,-1.71,10.64
7403.0,-0.07,-1.7,10.63
7416.0,-0.29,-1.6,10.52
7429.0,-0.35,-1.38,10.38
7442.0,-0.5,-1.1,10.16
7454.0,-0.45,-0.92,10.28
7467.0,-0.33,-0.7,10.3
7480.0,-0.2,-0.61,10.21
7493.0,-0.2,-0.57,9.85
7506.0,0.06,-0.72,9.8
7519.0,0.13,-0.89,9.7
7532.0,0.04,-1.23,9.93
7544.0,0.18,-1.52,10.28
7557.0,0.32,-1.56,10.6
7570.0,0.67,-1.55,10.87
7583.0,0.67,-1.22,10.54
7596.0,0.59,-0.93,10.05
7609.0,0.56,-0.65,9.54
7622.0,0.49,-0.49,9.23
7634.0,0.34,-0.53,9.17
7647.0,0.33,-0.7,9.4
7660.0,0.28,-0.94,9.71
7673.0,0.2,-1.11,9.97
7686.0,0.09,-1.36,10.19
7699.0,0.06,-1.5,10.21
7712.0,0.0,-1.52,10.1
7724.0,-0.1,-1.44,9.79
7737.0,-0.1,-1.26,9.46
7750.0,-0.04,-1.09,9.27
7763.0,0.02,-1.05,9.45
7776.0,0.05,-1.04,9.68
7789.0,0.15,-1.04,10.1
7802.0,0.23,-1.02,10.44
7815.0,0.29,-1.04,10.64
7827.0,0.34,-1.01,10.67
7840.0,0.36,-0.97,10.44
7853.0,0.28,-0.89,10.1
7866.0,0.16,-0.85,9.81
7879.0,0.14,-0.77,9.6
7892.0,0.08,-0.82,9.56
7905.0,0.08,-0.87,9.56
7917.0,-0.05,-0.96,9.68
7930.0,-0.06,-1.09,9.87
7943.0,-0.11,-1.22,10.09
7956.0,-0.13,-1.4,10.27
7969.0,-0.21,-1.52,10.35
7982.0,-0.23,-1.55,10.35
7995.0,-0.22,-1.55,10.35
8008.0,-0.18,-1.52,10.29
8020.0,-0.21,-1.43,10.12
8033.0,-0.18,-1.29,9.86
8046.0,-0.09,-1.15,9.56
8059.0,0.01,-1.15,9.52
8072.0,0.09,-1.22,9.64
8085.0,0.17,-1.18,9.62
8098.0,0.12,-1.3,9.99
8110.0,0.17,-1.29,10.08
8123.0,0.14,-1.39,10.33
8136.0,0.24,-1.47,10.51
8149.0,0.19,-1.25,10.19
8162.0,0.09,-1.11,9.9
8175.0,0.16,-1.13,9.88
8188.0,0.17,-1.21,9.95
8200.0,0.05,-1.3,9.93
8213.0,-0.04,-1.35,9.92
8226.0,-0.04,-1.41,9.93
8239.0,-0.04,-1.42,9.9
8252.0,-0.01,-1.4,9.89
8265.0,-0.05,-1.4,9.94
8278.0,0.0,-1.36,10.01
8291.0,0.1,-1.28,10.05
8303.0,0.07,-1.26,10.13
8316.0,0.08,-1.18,10.0
8329.0,-0.03,-1.17,9.96
8342.0,-0.01,-1.14,9.93
8355.0,0.07,-1.09,9.88
8368.0,0.05,-1.1,9.81
8381.0,-0.06,-1.16,9.89
8393.0,-0.1,-1.21,10.01
8406.0,-0.05,-1.22,10.11
8419.0,0.02,-1.15,10.07
8432.0,0.03,-1.07,9.92
8445.0,0.01,-1.08,9.87
8458.0,-0.04,-1.19,10.07
8471.0,0.02,-1.3,10.28
8484.0,0.0,-1.35,10.31
8496.0,-0.08,-1.36,10.24
8509.0,-0.18,-1.33,10.04
8522.0,-0.21,-1.29,9.84
8535.0,-0.24,-1.28,9.8
8548.0,-0.2,-1.33,9.84
8561.0,-0.22,-1.34,9.82
8574.0,-0.21,-1.35,9.88
8587.0,-0.21,-1.3,9.87
8599.0,-0.27,-1.31,9.96
8612.0,-0.21,-1.36,10.05
8625.0,-0.06,-1.39,10.09
8638.0,0.03,-1.38,10.03
8651.0,0.08,-1.31,9.91
8664.0,0.13,-1.21,9.75
8677.0,0.12,-1.15,9.6
8689.0,0.04,-1.19,9.68
8702.0,0.04,-1.21,9.81
8715.0,0.14,-1.16,9.91
8728.0,0.09,-1.15,9.93
8741.0,-0.04,-1.14,9.95
8754.0,-0.02,-1.16,10.01
8767.0,0.01,-1.2,10.14
8780.0,0.03,-1.24,10.22
8792.0,0.08,-1.29,10.23
8805.0,-0.14,-1.3,10.3
8818.0,-0.32,-1.39,10.46
8831.0,-0.28,-1.38,10.34
8844.0,-0.33,-1.25,10.09
8857.0,-0.32,-1.11,9.67
8870.0,-0.27,-1.04,9.41
8882.0,-0.17,-1.05,9.44
8895.0,-0.12,-1.15,9.58
8908.0,-0.11,-1.3,9.79
8921.0,-0.11,-1.44,9.88
8934.0,-0.14,-1.57,10.04
8947.0,-0.02,-1.66,10.19
8960.0,0.05,-1.68,10.27
8973.0,-0.07,-1.63,10.12
8985.0,-0.17,-1.51,9.89
8998.0,-0.2,-1.45,9.81
9011.0,-0.2,-1.44,9.84
9024.0,-0.23,-1.4,9.89
9037.0,-0.28,-1.35,9.92
9050.0,-0.3,-1.26,9.86
9063.0,-0.24,-1.11,9.77
9076.0,-0.06,-0.97,9.69
9088.0,-0.01,-0.95,9.78
9101.0,-0.13,-1.03,9.88
9114.0,-0.28,-1.2,10.18
9127.0,-0.07,-1.33,10.35
9140.0,0.08,-1.29,10.27
9153.0,0.01,-1.23,10.03
9166.0,-0.23,-1.22,9.86
9179.0,-0.29,-1.29,9.74
9191.0,-0.23,-1.36,9.78
9204.0,-0.31,-1.45,9.86
9217.0,-0.36,-1.54,10.02
9230.0,-0.3,-1.53,10.2
9243.0,-0.15,-1.47,10.24
9256.0,-0.03,-1.38,10.23
9269.0,0.03,-1.24,10.13
9282.0,0.1,-1.22,10.15
9294.0,0.06,-1.25,10.21
9307.0,0.17,-1.26,10.28
9320.0,0.24,-1.24,10.21
9333.0,0.17,-1.17,10.14
9346.0,0.23,-1.07,9.94
9359.0,0.25,-1.07,9.96
9372.0,0.24,-1.05,9.96
9384.0,0.19,-1.03,9.89
9397.0,0.11,-0.97,9.79
9410.0,0.04,-0.91,9.64
9423.0,-0.07,-0.95,9.63
9436.0,-0.08,-0.98,9.62
9449.0,-0.02,-1.06,9.82
9462.0,0.05,-1.07,9.9
9474.0,0.11,-1.1,10.02
9487.0,0.19,-1.08,9.99
9500.0,0.23,-1.1,10.01
9513.0,0.16,-1.22,10.08
9526.0,0.13,-1.32,10.19
9539.0,0.16,-1.33,10.16
9552.0,0.07,-1.33,10.02
9564.0,0.08,-1.28,9.94
9577.0,0.12,-1.21,9.93
9590.0,0.17,-1.15,9.89
9603.0,0.12,-1.13,9.93
9616.0,-0.0,-1.22,10.17
9629.0,-0.0,-1.27,10.35
9642.0,0.01,-1.23,10.36
9654.0,0.02,-1.19,10.34
9667.0,0.07,-1.15,10.31
9680.0,0.09,-1.05,10.2
9693.0,-0.04,-1.06,10.17
9706.0,-0.19,-0.95,9.88
9719.0,-0.23,-0.87,9.7
9732.0,-0.18,-0.68,9.32
9745.0,-0.2,-0.67,9.27
9757.0,-0.04,-0.78,9.54
9770.0,0.14,-1.02,10.21
9783.0,0.24,-1.1,10.51
9796.0,0.31,-1.12,10.58
9809.0,0.3,-0.99,10.35
9822.0,0.24,-0.88,10.1
9835.0,0.2,-0.77,9.83
9847.0,0.23,-0.73,9.68
9860.0,0.22,-0.68,9.5
9873.0,0.22,-0.71,9.45
9886.0,0.12,-0.83,9.51
9899.0,0.07,-0.95,9.7
9912.0,0.15,-1.09,10.05
9925.0,0.28,-1.13,10.21
9937.0,0.35,-1.08,10.03
9950.0,0.25,-1.05,9.85
9963.0,0.09,-1.07,9.71
9976.0,0.06,-1.24,9.86
9989.0,0.03,-1.35,9.95
10002.0,-0.03,-1.49,10.22
10015.0,-0.02,-1.46,10.19
10028.0,-0.06,-1.36,10.13
10040.0,0.01,-1.22,10.06
10053.0,-0.01,-1.14,9.99
10066.0,-0.02,-1.15,10.11
10079.0,-0.04,-1.15,10.34
10092.0,0.05,-1.04,10.38
10105.0,0.13,-0.85,10.24
10118.0,0.13,-0.74,10.04
10130.0,0.07,-0.66,9.95
10143.0,0.13,-0.62,9.96
10156.0,0.29,-0.6,9.96
10169.0,0.38,-0.59,9.96
10182.0,0.36,-0.58,9.89
10195.0,0.42,-0.59,9.94
10208.0,0.51,-0.56,9.95
10220.0,0.56,-0.65,10.04
10233.0,0.51,-0.71,10.09
10246.0,0.61,-0.71,10.06
10259.0,0.51,-0.73,10.03
10272.0,0.39,-0.68,9.82
10285.0,0.26,-0.76,9.89
10298.0,0.2,-0.9,10.01
10310.0,0.16,-1.04,10.14
10323.0,0.12,-1.07,10.11
10336.0,0.08,-1.07,10.07
10349.0,0.19,-1.11,10.15
10362.0,0.15,-1.19,10.34
10375.0,0.08,-1.3,10.43
10388.0,0.05,-1.33,10.38
10400.0,0.1,-1.27,10.19
10413.0,0.08,-1.15,9.94
10426.0,0.06,-1.08,9.74
10439.0,0.07,-1.1,9.76
10452.0,0.15,-1.12,9.78
10465.0,0.11,-1.15,9.79
10478.0,0.1,-1.16,9.83
10490.0,0.25,-1.14,9.93
10503.0,0.3,-1.16,10.05
10516.0,0.22,-1.17,10.06
10529.0,0.17,-1.15,10.07
10542.0,0.26,-1.13,10.06
10555.0,0.22,-1.05,9.99
10568.0,0.04,-0.96,9.8
10581.0,-0.08,-0.88,9.63
10593.0,-0.15,-0.78,9.49
10606.0,-0.12,-0.85,9.74
10619.0,0.08,-0.84,9.98
10632.0,0.13,-0.8,10.04
10645.0,0.07,-0.77,10.08
10658.0,0.25,-0.77,10.22
10671.0,0.3,-0.72,10.2
10683.0,0.22,-0.74,10.13
10696.0,0.17,-0.86,10.25
10709.0,0.08,-0.79,9.9
10722.0,-0.08,-0.99,10.09
10735.0,-0.19,-1.01,9.89
10748.0,-0.19,-0.96,9.65
10761.0,-0.06,-1.02,9.78
10773.0,0.0,-1.06,9.82
10786.0,-0.01,-1.14,10.06
10799.0,-0.09,-1.24,10.05
10812.0,-0.18,-1.46,10.37
10825.0,-0.16,-1.61,10.53
10838.0,-0.05,-1.61,10.57
10851.0,-0.04,-1.5,10.34
10864.0,-0.12,-1.33,10.07
10876.0,-0.08,-1.18,9.84
10889.0,-0.02,-1.1,9.82
10902.0,-0.03,-1.03,9.74
10915.0,0.02,-1.04,9.78
10928.0,0.17,-1.01,9.78
10941.0,0.2,-1.02,9.83
10954.0,0.28,-1.04,9.94
10967.0,0.34,-1.08,10.01
10979.0,0.31,-1.16,10.08
10992.0,0.29,-1.18,10.08
11005.0,0.25,-1.07,9.84
11018.0,0.11,-1.03,9.67
11031.0,-0.01,-1.04,9.69
11044.0,-0.08,-1.08,9.81
11057.0,0.01,-1.09,10.05
11069.0,0.11,-0.97,10.12
11082.0,0.2,-0.82,10.16
11095.0,0.24,-0.7,10.2
11108.0,0.26,-0.6,10.21
11121.0,0.36,-0.63,10.3
11134.0,0.32,-0.7,10.27
11147.0,0.14,-0.74,10.15
11159.0,0.06,-0.74,9.94
11172.0,0.14,-0.74,9.82
11185.0,0.13,-0.75,9.75
11198.0,0.17,-0.8,9.84
11211.0,0.31,-0.89,9.99
11224.0,0.34,-1.05,10.01
11237.0,0.14,-1.28,10.03
11249.0,-0.16,-1.54,10.07
11262.0,-0.34,-1.81,10.29
11275.0,-0.28,-1.9,10.34
11288.0,-0.27,-1.85,10.25
11301.0,-0.32,-1.67,9.99
11314.0,-0.2,-1.46,9.79
11327.0,-0.13,-1.32,9.79
11340.0,-0.14,-1.24,9.8
11352.0,-0.18,-1.21,9.87
11365.0,-0.12,-1.15,9.94
11378.0,-0.01,-1.03,9.97
11391.0,0.14,-0.94,9.99
11404.0,0.28,-0.85,9.99
11417.0,0.43,-0.76,10.0
11430.0,0.48,-0.66,10.03
11442.0,0.43,-0.61,9.97
11455.0,0.3,-0.6,9.88
11468.0,0.28,-0.6,9.79
11481.0,0.22,-0.65,9.78
11494.0,0.04,-0.82,9.9
11507.0,-0.02,-0.94,9.96
11520.0,-0.0,-1.04,10.01
11533.0,-0.1,-1.13,10.04
11545.0,-0.1,-1.23,10.07
11558.0,-0.08,-1.36,10.15
11571.0,-0.17,-1.48,10.23
11584.0,-0.22,-1.58,10.18
11597.0,-0.31,-1.64,10.08
11610.0,-0.43,-1.62,9.92
11623.0,-0.52,-1.58,9.76
11636.0,-0.49,-1.46,9.5
11648.0,-0.54,-1.45,9.52
11661.0,-0.6,-1.6,9.98
11674.0,-0.51,-1.64,10.32
11687.0,-0.3,-1.64,10.55
11700.0,-0.23,-1.46,10.41
11713.0,0.01,-1.17,10.08
11726.0,0.22,-0.82,9.73
11738.0,0.34,-0.62,9.59
11751.0,0.34,-0.57,9.65
11764.0,0.36,-0.69,9.87
11777.0,0.25,-0.86,10.08
11790.0,0.25,-0.95,10.2
11803.0,0.29,-0.97,10.18
11816.0,0.33,-0.9,9.86
11828.0,0.17,-0.92,9.53
11841.0,-0.08,-1.12,9.56
11854.0,-0.19,-1.29,9.66
11867.0,-0.27,-1.45,9.82
11880.0,-0.36,-1.65,10.12
11893.0,-0.31,-1.72,10.39
11906.0,-0.11,-1.59,10.44
11919.0,-0.01,-1.46,10.46
11931.0,-0.02,-1.35,10.26
11944.0,-0.03,-1.2,10.01
11957.0,-0.02,-1.09,9.89
11970.0,-0.06,-1.02,9.76
11983.0,-0.08,-1.03,9.74
11996.0,0.02,-1.06,9.79
12009.0,0.16,-1.12,9.92
12022.0,0.14,-1.15,10.04
12034.0,0.11,-1.15,10.06
12047.0,0.18,-1.07,10.03
12060.0,0.18,-1.04,10.01
12073.0,0.06,-0.99,9.9
12086.0,-0.03,-0.95,9.89
12099.0,-0.04,-0.99,9.88
12112.0,-0.07,-1.12,10.06
12124.0,-0.1,-1.2,10.04
12137.0,-0.14,-1.28,10.11
12150.0,-0.15,-1.37,10.23
12163.0,-0.16,-1.44,10.34
12176.0,-0.22,-1.49,10.36
12189.0,-0.22,-1.46,10.19
12202.0,-0.21,-1.39,9.99
12215.0,-0.16,-1.4,10.04
12227.0,0.12,-1.23,9.79
12240.0,0.14,-1.09,9.6
12253.0,0.06,-1.08,9.61
12266.0,0.01,-1.1,9.71
12279.0,0.05,-1.16,9.88
12292.0,0.08,-1.23,10.12
12305.0,0.04,-1.27,10.16
12317.0,0.04,-1.25,10.2
12330.0,0.07,-1.18,10.06
12343.0,-0.01,-1.14,9.98
12356.0,-0.1,-1.13,9.87
12369.0,-0.06,-1.16,9.8
12382.0,-0.02,-1.22,9.84
12395.0,0.02,-1.18,9.83
12408.0,-0.01,-1.17,9.85
12420.0,0.05,-1.14,9.9
12433.0,0.14,-1.09,9.96
12446.0,0.17,-1.05,10.09
12459.0,0.2,-1.02,10.09
12472.0,0.18,-1.0,10.07
12485.0,0.12,-1.0,10.04
12498.0,0.0,-1.04,10.0
12510.0,-0.05,-1.07,10.01
12523.0,-0.09,-1.15,10.07
12536.0,-0.17,-1.27,10.11
12549.0,-0.25,-1.37,10.18
12562.0,-0.08,-1.48,10.27
12575.0,-0.04,-1.53,10.39
12588.0,-0.17,-1.67,10.39
12601.0,-0.31,-1.93,10.83
12613.0,-0.47,-1.7,10.24
12626.0,-0.52,-1.72,10.28
12639.0,-0.36,-1.42,9.72
12652.0,-0.34,-1.15,9.3
12665.0,-0.14,-1.02,9.45
12678.0,-0.24,-0.64,8.9
12691.0,-0.18,-0.46,8.85
12704.0,-0.05,-0.42,9.05
12716.0,0.08,-0.58,9.52
12729.0,0.26,-0.76,10.06
12742.0,0.16,-0.92,10.34
12755.0,-0.11,-1.17,10.64
12768.0,-0.21,-1.32,10.74
12781.0,-0.23,-1.24,10.42
12794.0,-0.31,-1.25,10.3
12806.0,-0.3,-1.16,10.11
12819.0,-0.51,-1.12,9.96
12832.0,-0.7,-1.21,9.97
12845.0,-0.78,-1.3,9.97
12858.0,-0.83,-1.36,9.94
