timestamp,accX,accY,accZ
2.0,-0.53,-1.24,9.88
15.0,-0.42,-1.05,8.01
28.0,-0.55,-1.26,9.56
41.0,-0.54,-1.33,9.83
54.0,-0.55,-1.35,9.94
67.0,-0.54,-1.33,9.92
79.0,-0.55,-1.36,9.95
92.0,-0.51,-1.34,9.95
105.0,-0.48,-1.32,9.98
118.0,-0.47,-1.33,10.02
131.0,-0.5,-1.31,10.01
144.0,-0.55,-1.3,9.92
157.0,-0.59,-1.3,9.9
170.0,-0.57,-1.27,9.79
182.0,-0.53,-1.29,9.78
195.0,-0.6,-1.35,9.9
208.0,-0.57,-1.41,10.03
221.0,-0.55,-1.41,10.13
234.0,-0.49,-1.38,10.09
247.0,-0.42,-1.33,10.03
260.0,-0.45,-1.29,9.91
273.0,-0.52,-1.31,9.88
285.0,-0.59,-1.33,9.83
298.0,-0.62,-1.36,9.87
311.0,-0.57,-1.32,9.81
324.0,-0.53,-1.3,9.74
337.0,-0.49,-1.26,9.78
350.0,-0.47,-1.33,9.95
363.0,-0.46,-1.43,10.19
376.0,-0.5,-1.42,10.2
388.0,-0.57,-1.36,10.07
401.0,-0.64,-1.31,9.88
414.0,-0.64,-1.23,9.75
427.0,-0.55,-1.2,9.73
440.0,-0.52,-1.21,9.8
453.0,-0.53,-1.31,9.94
466.0,-0.51,-1.39,10.08
479.0,-0.5,-1.42,10.15
491.0,-0.46,-1.4,10.11
504.0,-0.44,-1.39,10.01
517.0,-0.39,-1.32,9.89
530.0,-0.47,-1.22,9.75
543.0,-0.52,-1.22,9.68
556.0,-0.52,-1.22,9.66
569.0,-0.49,-1.24,9.71
582.0,-0.51,-1.29,9.77
594.0,-0.52,-1.41,10.01
607.0,-0.56,-1.45,10.18
620.0,-0.58,-1.52,10.27
633.0,-0.58,-1.48,10.21
646.0,-0.56,-1.39,10.02
659.0,-0.56,-1.29,9.85
672.0,-0.62,-1.24,9.67
685.0,-0.66,-1.26,9.75
697.0,-0.62,-1.31,9.86
710.0,-0.63,-1.39,10.02
723.0,-0.54,-1.4,10.05
736.0,-0.47,-1.34,9.94
749.0,-0.48,-1.33,9.9
762.0,-0.5,-1.36,9.93
775.0,-0.5,-1.42,10.05
788.0,-0.49,-1.41,10.06
800.0,-0.5,-1.36,9.97
813.0,-0.54,-1.29,9.79
826.0,-0.62,-1.25,9.72
839.0,-0.58,-1.24,9.73
852.0,-0.52,-1.25,9.77
865.0,-0.48,-1.32,9.94
878.0,-0.51,-1.35,10.04
891.0,-0.53,-1.41,10.14
903.0,-0.52,-1.37,10.1
916.0,-0.52,-1.33,9.99
929.0,-0.53,-1.27,9.83
942.0,-0.59,-1.25,9.78
955.0,-0.62,-1.27,9.78
968.0,-0.6,-1.34,9.93
981.0,-0.54,-1.39,9.96
994.0,-0.52,-1.36,9.95
1006.0,-0.52,-1.31,9.9
1019.0,-0.51,-1.28,9.88
1032.0,-0.49,-1.32,9.97
1045.0,-0.47,-1.32,9.98
1058.0,-0.52,-1.36,9.98
1071.0,-0.51,-1.35,9.96
1084.0,-0.56,-1.32,9.88
1097.0,-0.6,-1.36,9.91
1109.0,-0.55,-1.35,9.92
1122.0,-0.56,-1.36,9.96
1135.0,-0.57,-1.34,9.98
1148.0,-0.56,-1.3,9.92
1161.0,-0.53,-1.28,9.87
1174.0,-0.54,-1.29,9.89
1187.0,-0.52,-1.31,9.9
1200.0,-0.49,-1.37,9.99
1212.0,-0.47,-1.39,10.07
1225.0,-0.47,-1.37,10.03
1238.0,-0.46,-1.31,9.88
1251.0,-0.49,-1.3,9.83
1264.0,-0.55,-1.31,9.87
1277.0,-0.51,-1.33,9.91
1290.0,-0.44,-1.35,10.01
1303.0,-0.49,-1.34,9.96
1315.0,-0.52,-1.34,9.93
1328.0,-0.55,-1.27,9.86
1341.0,-0.62,-1.22,9.79
1354.0,-0.66,-1.22,9.76
1367.0,-0.67,-1.28,9.81
1380.0,-0.64,-1.32,9.91
1393.0,-0.54,-1.34,10.03
1406.0,-0.49,-1.32,10.05
1418.0,-0.5,-1.3,9.98
1431.0,-0.53,-1.28,9.93
1444.0,-0.55,-1.26,9.85
1457.0,-0.57,-1.3,9.86
1470.0,-0.61,-1.33,9.85
1483.0,-0.57,-1.37,9.93
1496.0,-0.44,-1.35,9.94
1509.0,-0.45,-1.33,9.94
1521.0,-0.55,-1.35,9.96
1534.0,-0.55,-1.37,9.99
1547.0,-0.53,-1.34,9.95
1560.0,-0.54,-1.31,9.86
1573.0,-0.6,-1.28,9.77
1586.0,-0.65,-1.26,9.76
1599.0,-0.58,-1.27,9.85
1612.0,-0.53,-1.32,9.97
1624.0,-0.51,-1.37,10.11
1637.0,-0.49,-1.4,10.18
1650.0,-0.46,-1.4,10.15
1663.0,-0.5,-1.35,10.04
1676.0,-0.5,-1.27,9.87
1689.0,-0.6,-1.22,9.7
1702.0,-0.71,-1.23,9.65
1715.0,-0.64,-1.26,9.69
1727.0,-0.52,-1.35,9.88
1740.0,-0.48,-1.42,10.03
1753.0,-0.37,-1.34,10.04
1766.0,-0.51,-1.37,10.03
1779.0,-0.49,-1.5,10.24
1792.0,-0.47,-1.41,10.1
1805.0,-0.54,-1.37,9.91
1818.0,-0.65,-1.36,9.86
1830.0,-0.6,-1.35,9.81
1843.0,-0.62,-1.34,9.89
1856.0,-0.6,-1.3,9.9
1869.0,-0.59,-1.26,9.84
1882.0,-0.56,-1.23,9.86
1895.0,-0.51,-1.29,9.96
1908.0,-0.46,-1.33,10.04
1921.0,-0.48,-1.36,10.08
1933.0,-0.53,-1.36,9.95
1946.0,-0.54,-1.35,9.88
1959.0,-0.51,-1.28,9.77
1972.0,-0.54,-1.29,9.74
1985.0,-0.48,-1.26,9.72
1998.0,-0.51,-1.26,9.79
2011.0,-0.48,-1.3,9.91
2024.0,-0.49,-1.39,10.07
2036.0,-0.48,-1.44,10.19
2049.0,-0.5,-1.46,10.23
2062.0,-0.57,-1.48,10.2
2075.0,-0.64,-1.41,10.04
2088.0,-0.68,-1.35,9.84
2101.0,-0.67,-1.25,9.74
2114.0,-0.67,-1.25,9.67
2127.0,-0.64,-1.24,9.72
2139.0,-0.58,-1.25,9.77
2152.0,-0.59,-1.3,9.91
2165.0,-0.54,-1.35,10.06
2178.0,-0.47,-1.38,10.17
2191.0,-0.43,-1.39,10.17
2204.0,-0.45,-1.37,10.07
2217.0,-0.48,-1.32,9.93
2230.0,-0.52,-1.27,9.8
2242.0,-0.61,-1.26,9.74
2255.0,-0.66,-1.29,9.7
2268.0,-0.66,-1.31,9.75
2281.0,-0.65,-1.34,9.85
2294.0,-0.56,-1.37,9.91
2307.0,-0.52,-1.4,10.06
2320.0,-0.48,-1.43,10.14
2333.0,-0.49,-1.41,10.16
2345.0,-0.56,-1.4,10.09
2358.0,-0.59,-1.36,9.96
2371.0,-0.63,-1.31,9.81
2384.0,-0.64,-1.27,9.72
2397.0,-0.62,-1.28,9.74
2410.0,-0.59,-1.3,9.89
2423.0,-0.51,-1.28,9.95
2436.0,-0.55,-1.29,9.98
2448.0,-0.52,-1.31,9.98
2461.0,-0.5,-1.34,10.0
2474.0,-0.53,-1.38,10.01
2487.0,-0.58,-1.37,9.97
2500.0,-0.59,-1.35,9.91
2513.0,-0.57,-1.31,9.84
2526.0,-0.58,-1.31,9.78
2539.0,-0.61,-1.31,9.82
2551.0,-0.56,-1.34,9.94
2564.0,-0.55,-1.39,10.09
2577.0,-0.57,-1.37,10.1
2590.0,-0.61,-1.35,10.02
2603.0,-0.61,-1.28,9.9
2616.0,-0.56,-1.23,9.71
2629.0,-0.59,-1.21,9.69
2642.0,-0.59,-1.25,9.73
2654.0,-0.45,-1.3,9.94
2667.0,-0.42,-1.36,10.05
2680.0,-0.54,-1.4,10.07
2693.0,-0.57,-1.45,10.09
2706.0,-0.51,-1.42,10.01
2719.0,-0.55,-1.35,9.92
2732.0,-0.59,-1.33,9.79
2745.0,-0.58,-1.28,9.75
2757.0,-0.6,-1.27,9.78
2770.0,-0.58,-1.3,9.87
2783.0,-0.6,-1.35,9.91
2796.0,-0.65,-1.43,10.09
2809.0,-0.62,-1.43,10.08
2822.0,-0.63,-1.41,10.08
2835.0,-0.57,-1.4,10.01
2848.0,-0.55,-1.32,9.91
2860.0,-0.57,-1.3,9.83
2873.0,-0.61,-1.28,9.78
2886.0,-0.61,-1.29,9.81
2899.0,-0.61,-1.33,9.89
2912.0,-0.56,-1.34,9.87
2925.0,-0.5,-1.34,9.91
2938.0,-0.46,-1.35,9.97
2951.0,-0.53,-1.36,10.01
2963.0,-0.56,-1.37,10.05
2976.0,-0.59,-1.33,10.04
2989.0,-0.57,-1.3,9.95
3002.0,-0.6,-1.22,9.83
3015.0,-0.62,-1.2,9.73
3028.0,-0.63,-1.25,9.78
3041.0,-0.62,-1.38,9.99
3054.0,-0.59,-1.51,10.18
3066.0,-0.66,-1.61,10.35
3079.0,-0.71,-1.67,10.35
3092.0,-0.77,-1.67,10.18
3105.0,-0.81,-1.63,9.95
3118.0,-0.81,-1.46,9.66
3131.0,-0.79,-1.37,9.66
3144.0,-0.57,-1.11,9.44
3157.0,-0.51,-1.04,9.55
3169.0,-0.53,-1.06,9.87
3182.0,-0.48,-1.05,10.1
3195.0,-0.37,-1.0,10.18
3208.0,-0.28,-1.05,10.25
3221.0,-0.18,-0.93,9.97
3234.0,-0.22,-0.89,9.71
3247.0,-0.26,-0.95,9.6
3260.0,-0.22,-1.06,9.64
3272.0,-0.26,-1.14,9.62
3285.0,-0.44,-1.36,9.82
3298.0,-0.54,-1.52,10.02
3311.0,-0.62,-1.61,10.27
3324.0,-0.72,-1.56,10.34
3337.0,-0.81,-1.44,10.18
3350.0,-0.9,-1.3,9.98
3363.0,-0.86,-1.23,9.8
3375.0,-0.77,-1.23,9.71
3388.0,-0.83,-1.36,9.68
3401.0,-1.01,-1.51,9.77
3414.0,-1.01,-1.58,9.84
3427.0,-0.83,-1.61,10.03
3440.0,-0.68,-1.56,9.99
3453.0,-0.53,-1.54,9.92
3466.0,-0.45,-1.47,9.85
3478.0,-0.4,-1.37,9.82
3491.0,-0.37,-1.26,9.88
3504.0,-0.37,-1.17,9.95
3517.0,-0.41,-1.2,10.09
3530.0,-0.29,-1.19,9.96
3543.0,-0.18,-1.19,10.07
3556.0,0.1,-1.12,10.05
3569.0,0.02,-1.12,10.23
3581.0,-0.28,-1.12,10.21
3594.0,-0.53,-1.18,10.19
3607.0,-0.65,-1.21,9.99
3620.0,-0.76,-1.17,9.83
3633.0,-0.81,-1.13,9.54
3646.0,-0.7,-1.1,9.41
3659.0,-0.58,-1.21,9.62
3672.0,-0.62,-1.32,9.93
3684.0,-0.66,-1.42,10.23
3697.0,-0.56,-1.47,10.4
3710.0,-0.54,-1.51,10.43
3723.0,-0.49,-1.46,10.23
3736.0,-0.56,-1.42,9.99
3749.0,-0.65,-1.35,9.83
3762.0,-0.65,-1.28,9.66
3775.0,-0.68,-1.19,9.63
3787.0,-0.56,-1.17,9.69
3800.0,-0.5,-1.2,9.77
3813.0,-0.45,-1.29,9.98
3826.0,-0.41,-1.36,10.1
3839.0,-0.47,-1.42,10.15
3852.0,-0.41,-1.4,10.11
3865.0,-0.33,-1.28,9.92
3878.0,-0.37,-1.2,9.79
3890.0,-0.47,-1.12,9.68
3903.0,-0.54,-1.07,9.67
3916.0,-0.55,-1.04,9.69
3929.0,-0.55,-1.04,9.72
3942.0,-0.55,-1.07,9.9
3955.0,-0.53,-1.12,10.05
3968.0,-0.52,-1.17,10.18
3980.0,-0.47,-1.28,10.35
3993.0,-0.47,-1.4,10.39
4006.0,-0.47,-1.46,10.35
4019.0,-0.46,-1.4,10.13
4032.0,-0.52,-1.34,9.88
4045.0,-0.6,-1.28,9.66
4058.0,-0.65,-1.25,9.59
4071.0,-0.55,-1.27,9.73
4083.0,-0.44,-1.31,9.84
4096.0,-0.36,-1.33,10.03
4109.0,-0.35,-1.36,10.08
4122.0,-0.39,-1.34,10.07
4135.0,-0.43,-1.34,10.03
4148.0,-0.45,-1.31,10.01
4161.0,-0.52,-1.33,9.99
4174.0,-0.55,-1.35,9.95
4186.0,-0.49,-1.35,9.98
4199.0,-0.48,-1.29,9.9
4212.0,-0.52,-1.28,9.82
4225.0,-0.55,-1.27,9.8
4238.0,-0.52,-1.26,9.75
4251.0,-0.54,-1.27,9.78
4264.0,-0.54,-1.26,9.86
4277.0,-0.48,-1.29,10.01
4289.0,-0.43,-1.3,10.14
4302.0,-0.45,-1.28,10.14
4315.0,-0.48,-1.26,10.08
4328.0,-0.45,-1.25,9.98
4341.0,-0.5,-1.23,9.87
4354.0,-0.5,-1.25,9.9
4367.0,-0.52,-1.15,9.71
4380.0,-0.59,-1.13,9.7
4392.0,-0.63,-1.16,9.81
4405.0,-0.58,-1.25,10.01
4418.0,-0.44,-1.24,10.01
4431.0,-0.41,-1.18,9.97
4444.0,-0.4,-1.14,9.94
4457.0,-0.47,-1.19,9.94
4470.0,-0.54,-1.25,10.07
4483.0,-0.53,-1.33,10.1
4495.0,-0.55,-1.36,10.01
4508.0,-0.55,-1.38,9.96
4521.0,-0.5,-1.34,9.87
4534.0,-0.48,-1.32,9.89
4547.0,-0.4,-1.28,9.86
4560.0,-0.38,-1.21,9.83
4573.0,-0.37,-1.19,9.84
4586.0,-0.48,-1.17,9.87
4598.0,-0.43,-1.19,10.06
4611.0,-0.37,-1.21,10.1
4624.0,-0.43,-1.28,10.15
4637.0,-0.45,-1.3,10.15
4650.0,-0.4,-1.27,9.98
4663.0,-0.44,-1.25,9.92
4676.0,-0.53,-1.18,9.75
4689.0,-0.56,-1.16,9.64
4701.0,-0.54,-1.15,9.62
4714.0,-0.57,-1.27,9.92
4727.0,-0.55,-1.38,10.1
4740.0,-0.5,-1.37,10.1
4753.0,-0.43,-1.3,10.01
4766.0,-0.46,-1.31,9.94
4779.0,-0.47,-1.31,9.89
4792.0,-0.48,-1.31,9.86
4804.0,-0.58,-1.29,9.77
4817.0,-0.66,-1.19,9.54
4830.0,-0.71,-1.31,9.71
4843.0,-0.65,-1.37,9.87
4856.0,-0.57,-1.36,10.0
4869.0,-0.48,-1.36,10.14
4882.0,-0.36,-1.32,10.17
4895.0,-0.34,-1.29,10.19
4907.0,-0.24,-1.26,10.22
4920.0,-0.24,-1.18,10.13
4933.0,-0.28,-1.12,10.03
4946.0,-0.37,-1.1,9.95
4959.0,-0.41,-1.06,9.87
4972.0,-0.39,-1.0,9.8
4985.0,-0.31,-0.99,9.82
4998.0,-0.25,-0.98,9.92
5010.0,-0.24,-1.0,10.07
5023.0,-0.3,-1.07,10.2
5036.0,-0.36,-1.16,10.25
5049.0,-0.4,-1.18,10.21
5062.0,-0.46,-1.22,10.08
5075.0,-0.48,-1.19,9.89
5088.0,-0.52,-1.2,9.76
5101.0,-0.49,-1.2,9.7
5113.0,-0.45,-1.22,9.65
5126.0,-0.42,-1.19,9.64
5139.0,-0.44,-1.21,9.7
5152.0,-0.44,-1.27,9.78
5165.0,-0.45,-1.35,10.0
5178.0,-0.35,-1.38,10.09
5191.0,-0.31,-1.34,10.11
5204.0,-0.39,-1.34,10.11
5216.0,-0.39,-1.3,10.08
5229.0,-0.34,-1.29,10.05
5242.0,-0.46,-1.28,9.96
5255.0,-0.52,-1.31,9.91
5268.0,-0.52,-1.27,9.88
5281.0,-0.48,-1.19,9.81
5294.0,-0.47,-1.15,9.79
5307.0,-0.38,-1.12,9.83
5319.0,-0.3,-1.15,9.95
5332.0,-0.23,-1.23,10.11
5345.0,-0.24,-1.32,10.25
5358.0,-0.19,-1.37,10.32
5371.0,-0.25,-1.32,10.16
5384.0,-0.48,-1.27,10.0
5397.0,-0.5,-1.14,9.83
5410.0,-0.49,-1.02,9.67
5422.0,-0.48,-1.03,9.67
5435.0,-0.48,-1.1,9.74
5448.0,-0.45,-1.25,9.97
5461.0,-0.49,-1.4,10.23
5474.0,-0.49,-1.47,10.35
5487.0,-0.48,-1.48,10.21
5500.0,-0.44,-1.39,10.01
5513.0,-0.51,-1.26,9.7
5525.0,-0.53,-1.18,9.6
5538.0,-0.53,-1.14,9.54
5551.0,-0.5,-1.13,9.56
5564.0,-0.45,-1.22,9.71
5577.0,-0.38,-1.29,9.9
5590.0,-0.29,-1.36,10.12
5603.0,-0.26,-1.39,10.28
5616.0,-0.28,-1.35,10.28
5628.0,-0.3,-1.27,10.1
5641.0,-0.34,-1.19,9.92
5654.0,-0.43,-1.15,9.86
5667.0,-0.39,-1.01,9.54
5680.0,-0.55,-1.2,9.91
5693.0,-0.42,-1.18,9.96
5706.0,-0.55,-1.2,9.91
5719.0,-0.52,-1.28,10.11
5731.0,-0.43,-1.23,10.1
5744.0,-0.43,-1.21,10.07
5757.0,-0.39,-1.19,9.99
5770.0,-0.4,-1.23,9.97
5783.0,-0.44,-1.28,10.02
5796.0,-0.38,-1.29,10.0
5809.0,-0.34,-1.24,9.96
5822.0,-0.38,-1.2,9.86
5834.0,-0.38,-1.14,9.79
5847.0,-0.35,-1.09,9.77
5860.0,-0.39,-1.12,9.83
5873.0,-0.41,-1.2,9.91
5886.0,-0.4,-1.31,9.99
5899.0,-0.3,-1.36,10.02
5912.0,-0.31,-1.39,10.02
5925.0,-0.31,-1.34,9.99
5937.0,-0.32,-1.23,9.94
5950.0,-0.39,-1.16,9.87
5963.0,-0.44,-1.14,9.83
5976.0,-0.52,-1.2,9.9
5989.0,-0.65,-1.37,10.05
6002.0,-0.49,-1.4,10.11
6015.0,-0.28,-1.36,10.18
6028.0,-0.31,-1.33,10.12
6040.0,-0.45,-1.27,9.96
6053.0,-0.43,-1.24,9.9
6066.0,-0.33,-1.2,9.86
6079.0,-0.36,-1.2,9.84
6092.0,-0.41,-1.25,9.9
6105.0,-0.39,-1.26,9.92
6118.0,-0.39,-1.21,9.94
6131.0,-0.35,-1.22,9.96
6143.0,-0.3,-1.2,9.98
6156.0,-0.26,-1.21,10.03
6169.0,-0.35,-1.2,10.01
6182.0,-0.44,-1.24,9.98
6195.0,-0.46,-1.25,9.98
6208.0,-0.5,-1.29,9.98
6221.0,-0.48,-1.27,9.91
6234.0,-0.49,-1.24,9.86
6246.0,-0.53,-1.22,9.86
6259.0,-0.51,-1.18,9.8
6272.0,-0.43,-1.18,9.89
6285.0,-0.35,-1.2,9.98
6298.0,-0.34,-1.26,10.06
6311.0,-0.36,-1.3,10.06
6324.0,-0.4,-1.31,9.96
6337.0,-0.45,-1.33,10.01
6349.0,-0.45,-1.33,9.94
6362.0,-0.4,-1.26,9.87
6375.0,-0.38,-1.23,9.87
6388.0,-0.4,-1.24,9.87
6401.0,-0.34,-1.21,9.98
6414.0,-0.31,-1.2,10.02
6427.0,-0.44,-1.22,10.04
6440.0,-0.49,-1.21,10.03
6452.0,-0.44,-1.25,10.04
6465.0,-0.42,-1.29,10.05
6478.0,-0.46,-1.27,9.96
6491.0,-0.47,-1.28,9.88
6504.0,-0.41,-1.25,9.82
6517.0,-0.36,-1.29,9.85
6530.0,-0.38,-1.32,9.85
6543.0,-0.37,-1.31,9.84
6555.0,-0.41,-1.3,9.83
6568.0,-0.47,-1.28,9.87
6581.0,-0.48,-1.26,9.9
6594.0,-0.48,-1.22,9.91
6607.0,-0.52,-1.23,9.89
6620.0,-0.52,-1.27,9.99
6633.0,-0.41,-1.32,10.09
6646.0,-0.37,-1.34,10.2
6658.0,-0.41,-1.32,10.18
6671.0,-0.45,-1.28,10.13
6684.0,-0.42,-1.23,9.99
6697.0,-0.39,-1.14,9.87
6710.0,-0.31,-1.12,9.78
6723.0,-0.24,-1.1,9.82
6736.0,-0.26,-1.09,9.85
6749.0,-0.32,-1.14,9.94
6761.0,-0.36,-1.2,10.04
6774.0,-0.38,-1.2,10.06
6787.0,-0.36,-1.17,9.98
6800.0,-0.39,-1.16,9.88
6813.0,-0.45,-1.19,9.8
6826.0,-0.43,-1.21,9.83
6839.0,-0.45,-1.3,9.95
6852.0,-0.46,-1.39,10.0
6864.0,-0.5,-1.43,10.0
6877.0,-0.48,-1.39,9.91
6890.0,-0.45,-1.34,9.82
6903.0,-0.48,-1.31,9.82
6916.0,-0.54,-1.34,9.87
6929.0,-0.47,-1.32,9.95
6942.0,-0.45,-1.3,10.02
6955.0,-0.52,-1.29,10.02
6967.0,-0.55,-1.3,10.03
6980.0,-0.53,-1.33,10.03
6993.0,-0.47,-1.34,10.11
7006.0,-0.43,-1.28,10.05
7019.0,-0.4,-1.25,10.02
7032.0,-0.36,-1.21,9.94
7045.0,-0.34,-1.17,9.89
7058.0,-0.36,-1.16,9.85
7070.0,-0.4,-1.19,9.86
7083.0,-0.38,-1.23,9.93
7096.0,-0.37,-1.24,9.9
7109.0,-0.36,-1.24,9.89
7122.0,-0.38,-1.3,10.0
7135.0,-0.44,-1.37,10.03
7148.0,-0.43,-1.43,10.1
7161.0,-0.45,-1.43,10.06
7173.0,-0.5,-1.4,9.9
7186.0,-0.53,-1.36,9.79
7199.0,-0.53,-1.29,9.71
7212.0,-0.55,-1.26,9.76
7225.0,-0.52,-1.28,9.89
7238.0,-0.45,-1.27,9.92
7251.0,-0.37,-1.27,10.01
7264.0,-0.3,-1.3,10.1
7276.0,-0.37,-1.32,10.12
7289.0,-0.37,-1.33,10.13
7302.0,-0.37,-1.27,9.98
7315.0,-0.4,-1.18,9.82
7328.0,-0.47,-0.97,9.33
7341.0,-0.55,-1.22,9.83
7354.0,-0.48,-1.3,10.01
7367.0,-0.43,-1.37,10.22
7379.0,-0.4,-1.3,10.15
7392.0,-0.37,-1.26,10.11
7405.0,-0.32,-1.26,10.07
7418.0,-0.33,-1.32,10.11
7431.0,-0.39,-1.43,10.16
7444.0,-0.46,-1.44,10.06
7457.0,-0.49,-1.38,9.87
7470.0,-0.49,-1.3,9.68
7482.0,-0.51,-1.23,9.58
7495.0,-0.47,-1.23,9.61
7508.0,-0.39,-1.26,9.84
7521.0,-0.35,-1.29,10.04
7534.0,-0.43,-1.29,10.08
7547.0,-0.45,-1.26,10.03
7560.0,-0.43,-1.23,9.99
7573.0,-0.44,-1.26,9.93
7585.0,-0.48,-1.33,9.95
7598.0,-0.48,-1.36,9.98
7611.0,-0.55,-1.41,10.01
7624.0,-0.58,-1.43,10.08
7637.0,-0.61,-1.38,9.99
7650.0,-0.57,-1.33,9.92
7663.0,-0.5,-1.29,9.91
7676.0,-0.51,-1.29,9.9
7688.0,-0.48,-1.3,9.93
7701.0,-0.43,-1.29,9.91
7714.0,-0.39,-1.29,9.96
7727.0,-0.33,-1.24,9.95
7740.0,-0.29,-1.24,9.95
7753.0,-0.27,-1.25,9.94
7766.0,-0.26,-1.23,9.87
7779.0,-0.33,-1.24,9.82
7791.0,-0.36,-1.25,9.79
7804.0,-0.37,-1.31,9.84
7817.0,-0.37,-1.36,10.0
7830.0,-0.4,-1.39,10.09
7843.0,-0.5,-1.4,10.05
7856.0,-0.56,-1.35,10.01
7869.0,-0.59,-1.3,9.91
7882.0,-0.63,-1.27,9.84
7894.0,-0.64,-1.26,9.84
7907.0,-0.56,-1.3,9.92
7920.0,-0.48,-1.35,10.08
7933.0,-0.45,-1.35,10.15
7946.0,-0.45,-1.33,10.1
7959.0,-0.4,-1.3,10.04
7972.0,-0.39,-1.25,9.92
7985.0,-0.38,-1.23,9.79
7997.0,-0.41,-1.24,9.75
8010.0,-0.42,-1.28,9.81
8023.0,-0.38,-1.31,9.87
8036.0,-0.4,-1.37,10.03
8049.0,-0.37,-1.33,10.08
8062.0,-0.42,-1.29,10.03
8075.0,-0.43,-1.22,9.9
8088.0,-0.4,-1.15,9.78
8100.0,-0.43,-1.16,9.8
8113.0,-0.49,-1.22,9.82
8126.0,-0.53,-1.28,9.95
8139.0,-0.54,-1.39,10.04
8152.0,-0.53,-1.44,10.06
8165.0,-0.5,-1.4,10.06
8178.0,-0.45,-1.36,9.99
8191.0,-0.48,-1.31,9.9
8203.0,-0.46,-1.34,9.98
8216.0,-0.43,-1.39,10.03
8229.0,-0.44,-1.39,10.02
8242.0,-0.48,-1.31,9.93
8255.0,-0.43,-1.23,9.75
8268.0,-0.39,-1.17,9.72
8281.0,-0.37,-1.12,9.74
8294.0,-0.32,-1.17,9.84
8306.0,-0.28,-1.26,9.99
8319.0,-0.29,-1.32,10.1
8332.0,-0.32,-1.37,10.17
8345.0,-0.37,-1.36,10.08
8358.0,-0.45,-1.36,9.98
8371.0,-0.5,-1.33,9.94
8384.0,-0.5,-1.31,9.94
8397.0,-0.52,-1.29,9.88
8409.0,-0.55,-1.28,9.89
8422.0,-0.5,-1.27,9.87
8435.0,-0.45,-1.24,9.87
8448.0,-0.46,-1.28,9.92
8461.0,-0.36,-1.33,10.06
8474.0,-0.34,-1.34,10.08
8487.0,-0.34,-1.36,10.1
8500.0,-0.37,-1.32,10.01
8512.0,-0.42,-1.27,9.89
8525.0,-0.43,-1.22,9.78
8538.0,-0.46,-1.2,9.68
8551.0,-0.5,-1.21,9.73
8564.0,-0.5,-1.27,9.77
8577.0,-0.47,-1.28,9.88
8590.0,-0.5,-1.34,9.98
8603.0,-0.55,-1.41,10.05
8615.0,-0.57,-1.46,10.15
8628.0,-0.51,-1.44,10.1
8641.0,-0.46,-1.39,10.05
8654.0,-0.45,-1.33,9.96
8667.0,-0.43,-1.27,9.94
8680.0,-0.44,-1.25,9.93
8693.0,-0.45,-1.23,9.92
8706.0,-0.43,-1.22,9.85
8718.0,-0.41,-1.19,9.76
8731.0,-0.38,-1.16,9.72
8744.0,-0.36,-1.19,9.77
8757.0,-0.41,-1.27,9.88
8770.0,-0.36,-1.36,9.99
8783.0,-0.31,-1.39,10.05
8796.0,-0.34,-1.41,10.09
8809.0,-0.42,-1.38,10.04
8821.0,-0.5,-1.34,9.99
8834.0,-0.51,-1.27,9.91
8847.0,-0.51,-1.24,9.86
8860.0,-0.57,-1.25,9.87
8873.0,-0.59,-1.31,9.87
8886.0,-0.57,-1.33,9.86
8899.0,-0.48,-1.35,9.89
8912.0,-0.48,-1.34,9.9
8924.0,-0.5,-1.37,9.96
8937.0,-0.48,-1.36,10.04
8950.0,-0.42,-1.35,10.08
8963.0,-0.42,-1.34,10.08
8976.0,-0.45,-1.34,10.06
8989.0,-0.48,-1.29,10.0
9002.0,-0.44,-1.22,9.9
9015.0,-0.44,-1.15,9.76
9027.0,-0.49,-1.15,9.7
9040.0,-0.43,-1.22,9.79
9053.0,-0.35,-1.25,9.89
9066.0,-0.36,-1.36,10.04
9079.0,-0.36,-1.45,10.12
9092.0,-0.37,-1.46,10.15
9105.0,-0.32,-1.4,10.06
9118.0,-0.39,-1.28,9.92
9130.0,-0.48,-1.2,9.75
9143.0,-0.5,-1.22,9.79
9156.0,-0.49,-1.26,9.87
9169.0,-0.47,-1.29,9.94
9182.0,-0.43,-1.31,9.97
9195.0,-0.35,-1.32,10.02
9208.0,-0.34,-1.33,10.04
9221.0,-0.42,-1.35,10.01
9233.0,-0.48,-1.34,9.97
9246.0,-0.52,-1.34,9.97
9259.0,-0.54,-1.34,9.9
9272.0,-0.59,-1.31,9.85
9285.0,-0.57,-1.26,9.82
9298.0,-0.52,-1.27,9.85
9311.0,-0.45,-1.25,9.92
9324.0,-0.43,-1.29,9.99
9336.0,-0.41,-1.36,10.07
9349.0,-0.37,-1.38,10.07
9362.0,-0.37,-1.36,10.03
9375.0,-0.38,-1.28,9.89
9388.0,-0.43,-1.21,9.74
9401.0,-0.43,-1.18,9.71
9414.0,-0.41,-1.18,9.74
9427.0,-0.36,-1.24,9.9
9439.0,-0.37,-1.28,9.98
9452.0,-0.41,-1.35,10.13
9465.0,-0.4,-1.4,10.19
9478.0,-0.42,-1.44,10.14
9491.0,-0.49,-1.42,10.03
9504.0,-0.5,-1.38,9.84
9517.0,-0.57,-1.29,9.71
9530.0,-0.61,-1.29,9.69
9542.0,-0.53,-1.29,9.8
9555.0,-0.48,-1.34,9.98
9568.0,-0.46,-1.36,10.1
9581.0,-0.4,-1.37,10.2
9594.0,-0.41,-1.34,10.16
9607.0,-0.41,-1.28,10.06
9620.0,-0.43,-1.23,9.89
9633.0,-0.46,-1.18,9.77
9645.0,-0.42,-1.19,9.76
9658.0,-0.42,-1.25,9.81
9671.0,-0.37,-1.28,9.91
9684.0,-0.37,-1.3,9.99
9697.0,-0.46,-1.35,10.05
9710.0,-0.33,-1.34,10.08
9723.0,-0.29,-1.23,9.92
9736.0,-0.42,-1.21,9.74
9748.0,-0.5,-1.41,10.03
9761.0,-0.47,-1.44,10.09
9774.0,-0.51,-1.43,10.03
9787.0,-0.59,-1.36,9.87
9800.0,-0.59,-1.29,9.73
9813.0,-0.55,-1.22,9.66
9826.0,-0.48,-1.24,9.75
9839.0,-0.42,-1.34,9.95
9851.0,-0.45,-1.43,10.15
9864.0,-0.47,-1.43,10.18
9877.0,-0.43,-1.4,10.11
9890.0,-0.41,-1.31,10.0
9903.0,-0.42,-1.26,9.87
9916.0,-0.49,-1.25,9.77
9929.0,-0.53,-1.24,9.76
9942.0,-0.5,-1.26,9.84
9954.0,-0.5,-1.24,9.88
9967.0,-0.43,-1.22,9.88
9980.0,-0.39,-1.19,9.87
9993.0,-0.37,-1.15,9.91
10006.0,-0.37,-1.18,9.91
10019.0,-0.42,-1.27,10.06
10032.0,-0.4,-1.33,10.08
10045.0,-0.43,-1.36,10.02
10057.0,-0.49,-1.42,9.94
10070.0,-0.52,-1.41,9.9
10083.0,-0.53,-1.44,9.87
10096.0,-0.57,-1.47,9.88
10109.0,-0.57,-1.48,9.99
10122.0,-0.55,-1.48,10.08
10135.0,-0.47,-1.43,10.1
10148.0,-0.45,-1.36,10.06
10160.0,-0.47,-1.31,9.99
10173.0,-0.51,-1.23,9.87
10186.0,-0.52,-1.24,9.86
10199.0,-0.51,-1.23,9.83
10212.0,-0.49,-1.22,9.84
10225.0,-0.43,-1.22,9.86
10238.0,-0.38,-1.22,9.93
10251.0,-0.38,-1.26,9.98
10263.0,-0.37,-1.27,9.97
10276.0,-0.42,-1.26,9.94
10289.0,-0.49,-1.25,9.84
10302.0,-0.5,-1.24,9.8
10315.0,-0.49,-1.25,9.82
10328.0,-0.53,-1.34,9.9
10341.0,-0.52,-1.4,10.0
10354.0,-0.49,-1.49,10.07
10366.0,-0.53,-1.53,10.03
10379.0,-0.51,-1.53,9.97
10392.0,-0.53,-1.49,9.91
10405.0,-0.54,-1.46,9.9
10418.0,-0.51,-1.43,9.92
10431.0,-0.51,-1.38,9.93
10444.0,-0.52,-1.32,9.94
10457.0,-0.5,-1.26,9.92
10469.0,-0.46,-1.19,9.89
10482.0,-0.39,-1.14,9.85
10495.0,-0.34,-1.13,9.84
10508.0,-0.31,-1.16,9.85
10521.0,-0.35,-1.24,9.95
10534.0,-0.34,-1.39,10.08
10547.0,-0.32,-1.43,10.1
10560.0,-0.39,-1.47,10.03
10572.0,-0.42,-1.44,9.91
10585.0,-0.47,-1.39,9.81
10598.0,-0.53,-1.36,9.79
10611.0,-0.58,-1.34,9.84
10624.0,-0.64,-1.39,9.96
10637.0,-0.63,-1.42,10.05
10650.0,-0.61,-1.43,10.05
10663.0,-0.56,-1.41,10.0
10675.0,-0.55,-1.37,9.98
10688.0,-0.56,-1.37,9.97
10701.0,-0.54,-1.4,10.01
10714.0,-0.55,-1.41,10.02
10727.0,-0.52,-1.36,10.04
10740.0,-0.46,-1.33,9.93
10753.0,-0.5,-1.25,9.84
10766.0,-0.48,-1.25,9.79
10778.0,-0.45,-1.23,9.79
10791.0,-0.38,-1.27,9.87
10804.0,-0.32,-1.31,9.92
10817.0,-0.33,-1.33,9.9
10830.0,-0.39,-1.37,9.89
10843.0,-0.39,-1.4,9.94
10856.0,-0.39,-1.42,9.93
10869.0,-0.42,-1.43,9.95
10881.0,-0.42,-1.38,9.96
10894.0,-0.46,-1.39,9.96
10907.0,-0.51,-1.38,9.98
10920.0,-0.52,-1.32,9.94
10933.0,-0.5,-1.27,9.91
10946.0,-0.5,-1.26,9.87
10959.0,-0.51,-1.26,9.88
10972.0,-0.49,-1.33,9.99
10984.0,-0.5,-1.35,10.08
10997.0,-0.47,-1.38,10.11
11010.0,-0.45,-1.35,10.04
11023.0,-0.52,-1.27,9.88
11036.0,-0.57,-1.27,9.75
11049.0,-0.59,-1.31,9.74
11062.0,-0.54,-1.36,9.79
11075.0,-0.52,-1.38,9.88
11087.0,-0.5,-1.4,9.94
11100.0,-0.45,-1.42,10.04
11113.0,-0.44,-1.41,10.1
11126.0,-0.47,-1.41,10.08
11139.0,-0.46,-1.36,10.01
11152.0,-0.41,-1.29,9.88
11165.0,-0.44,-1.23,9.79
11178.0,-0.42,-1.16,9.71
11190.0,-0.39,-1.18,9.75
11203.0,-0.36,-1.22,9.86
11216.0,-0.3,-1.28,10.03
11229.0,-0.23,-1.34,10.12
11242.0,-0.3,-1.41,10.13
11255.0,-0.36,-1.42,10.11
11268.0,-0.41,-1.42,10.02
11281.0,-0.45,-1.4,9.94
11293.0,-0.52,-1.37,9.89
11306.0,-0.54,-1.28,9.84
11319.0,-0.53,-1.2,9.79
11332.0,-0.43,-1.08,9.75
11345.0,-0.52,-1.1,9.71
11358.0,-0.45,-1.31,10.07
11371.0,-0.51,-1.43,10.16
11384.0,-0.54,-1.5,10.23
11396.0,-0.56,-1.48,10.13
11409.0,-0.52,-1.45,10.0
11422.0,-0.54,-1.45,9.9
11435.0,-0.51,-1.43,9.85
11448.0,-0.51,-1.42,9.81
11461.0,-0.51,-1.41,9.8
11474.0,-0.49,-1.42,9.85
11487.0,-0.43,-1.45,9.93
11499.0,-0.34,-1.48,10.01
11512.0,-0.32,-1.41,9.98
11525.0,-0.34,-1.34,9.92
11538.0,-0.36,-1.26,9.88
11551.0,-0.41,-1.21,9.9
11564.0,-0.45,-1.21,9.96
11577.0,-0.46,-1.2,9.97
11590.0,-0.43,-1.2,9.91
11602.0,-0.45,-1.22,9.87
11615.0,-0.51,-1.26,9.9
11628.0,-0.54,-1.36,9.94
11641.0,-0.54,-1.42,9.99
11654.0,-0.5,-1.5,9.97
11667.0,-0.48,-1.52,9.97
11680.0,-0.49,-1.51,9.92
11693.0,-0.52,-1.47,9.84
11705.0,-0.51,-1.42,9.75
11718.0,-0.48,-1.41,9.72
11731.0,-0.45,-1.43,9.85
11744.0,-0.47,-1.47,9.93
11757.0,-0.47,-1.46,9.97
11770.0,-0.48,-1.44,10.02
11783.0,-0.59,-1.45,9.99
11796.0,-0.69,-1.47,9.95
11808.0,-0.69,-1.42,9.86
11821.0,-0.58,-1.38,9.81
11834.0,-0.54,-1.35,9.77
11847.0,-0.59,-1.32,9.86
11860.0,-0.65,-1.36,10.0
11873.0,-0.45,-1.44,10.24
11886.0,-0.34,-1.37,10.24
11899.0,-0.25,-1.25,10.15
11911.0,-0.16,-1.15,10.04
11924.0,-0.11,-1.1,9.97
11937.0,-0.15,-1.04,9.85
11950.0,-0.26,-1.0,9.77
11963.0,-0.31,-1.01,9.78
11976.0,-0.25,-1.05,9.8
11989.0,-0.2,-1.09,9.87
12002.0,-0.22,-1.14,9.94
12014.0,-0.23,-1.22,10.09
12027.0,-0.23,-1.26,10.16
12040.0,-0.33,-1.29,10.04
12053.0,-0.45,-1.31,10.02
12066.0,-0.45,-1.29,9.92
12079.0,-0.49,-1.3,9.9
12092.0,-0.56,-1.36,9.85
12105.0,-0.51,-1.43,9.95
12117.0,-0.46,-1.45,9.95
12130.0,-0.48,-1.45,9.93
12143.0,-0.42,-1.42,9.85
12156.0,-0.4,-1.42,9.92
12169.0,-0.36,-1.38,9.85
12182.0,-0.39,-1.37,9.91
12195.0,-0.36,-1.29,9.79
12208.0,-0.41,-1.34,9.93
12220.0,-0.5,-1.33,9.79
12233.0,-0.6,-1.39,9.76
12246.0,-0.71,-1.45,9.67
12259.0,-0.76,-1.54,9.83
12272.0,-0.73,-1.56,10.02
12285.0,-0.42,-1.49,10.17
12298.0,-0.54,-1.44,10.17
12311.0,-0.78,-1.38,10.07
12323.0,-0.57,-1.37,10.13
12336.0,-0.41,-1.45,10.29
12349.0,-0.2,-1.52,10.34
12362.0,-0.19,-1.38,9.99
12375.0,-0.05,-1.27,9.81
12388.0,-0.13,-1.26,9.68
12401.0,-0.15,-1.33,9.77
12414.0,-0.11,-1.3,9.68
12426.0,-0.1,-1.34,9.69
12439.0,-0.15,-1.39,9.75
12452.0,-0.21,-1.54,9.96
12465.0,-0.23,-1.5,9.9
12478.0,-0.25,-1.54,9.97
12491.0,-0.38,-1.61,10.1
12504.0,-0.49,-1.63,10.12
12517.0,-0.53,-1.56,10.02
12529.0,-0.53,-1.47,9.88
12542.0,-0.57,-1.44,9.87
12555.0,-0.53,-1.38,9.9
12568.0,-0.34,-1.33,10.04
12581.0,-0.19,-1.28,10.06
12594.0,-0.26,-1.21,9.89
12607.0,-0.37,-1.19,9.71
12620.0,-0.35,-1.21,9.79
12632.0,-0.3,-1.29,9.96
12645.0,-0.24,-1.36,10.16
12658.0,-0.21,-1.32,10.03
12671.0,-0.34,-1.31,9.92
12684.0,-0.4,-1.33,9.82
12697.0,-0.45,-1.41,9.82
12710.0,-0.45,-1.53,9.99
12723.0,-0.47,-1.55,10.0
12735.0,-0.52,-1.58,10.05
12748.0,-0.59,-1.61,10.05
12761.0,-0.49,-1.54,9.96
12774.0,-0.51,-1.47,9.82
12787.0,-0.47,-1.43,9.73
12800.0,-0.46,-1.42,9.68
12813.0,-0.53,-1.39,9.76
12826.0,-0.53,-1.44,9.9
12838.0,-0.53,-1.49,10.06
12851.0,-0.47,-1.51,10.09
12864.0,-0.44,-1.5,10.03
