timestamp,accX,accY,accZ
2.0,0.72,-0.85,8.68
15.0,0.48,-0.79,7.1
28.0,0.34,-1.25,8.64
41.0,0.61,-1.4,9.08
54.0,1.34,-1.27,9.19
66.0,2.28,-1.15,9.29
79.0,3.19,-1.17,9.69
92.0,3.64,-1.58,10.52
105.0,3.37,-2.28,11.43
118.0,3.1,-2.76,11.75
131.0,3.04,-2.81,11.56
144.0,3.18,-2.56,11.07
157.0,3.51,-2.2,10.43
169.0,4.24,-2.01,10.33
182.0,5.02,-2.31,11.24
195.0,5.2,-2.81,11.96
208.0,4.83,-3.13,11.9
221.0,4.33,-3.08,11.36
234.0,3.9,-2.83,10.95
247.0,4.02,-2.58,11.06
259.0,4.36,-2.33,11.1
272.0,4.72,-2.04,10.93
285.0,5.11,-1.73,10.51
298.0,5.3,-1.41,10.18
311.0,5.04,-1.42,10.08
324.0,4.04,-1.75,9.96
337.0,2.91,-2.04,9.8
349.0,2.24,-2.25,9.77
362.0,1.96,-2.27,9.55
375.0,2.16,-2.29,9.67
388.0,2.59,-2.21,9.76
401.0,2.85,-2.03,9.94
414.0,2.73,-1.97,9.91
427.0,2.06,-2.01,9.57
439.0,1.02,-2.2,9.2
452.0,0.06,-2.27,8.95
465.0,-0.42,-2.44,9.45
478.0,-0.85,-2.61,10.24
491.0,-1.18,-2.97,10.94
504.0,-1.78,-3.37,11.42
517.0,-2.23,-3.33,11.0
529.0,-2.39,-2.88,10.28
542.0,-2.46,-2.28,9.89
555.0,-2.15,-1.94,10.02
568.0,-1.96,-1.85,10.18
581.0,-2.36,-1.85,10.11
594.0,-3.12,-1.89,9.73
607.0,-4.14,-1.9,9.39
620.0,-4.92,-2.05,9.25
632.0,-5.68,-2.14,9.33
645.0,-5.99,-2.2,9.68
658.0,-6.24,-1.98,9.22
671.0,-6.43,-1.56,8.67
684.0,-6.41,-1.12,8.25
697.0,-6.08,-0.79,8.17
710.0,-5.81,-0.64,8.39
723.0,-5.65,-0.64,8.64
735.0,-5.66,-0.65,8.73
748.0,-5.67,-0.64,8.62
761.0,-5.66,-0.65,8.62
774.0,-5.5,-0.61,8.67
787.0,-5.36,-0.62,8.68
800.0,-5.18,-0.71,8.87
813.0,-4.99,-0.93,9.27
826.0,-4.85,-1.16,9.68
838.0,-4.77,-1.33,9.75
851.0,-4.59,-1.4,9.74
864.0,-4.31,-1.4,9.8
877.0,-3.89,-1.27,9.74
890.0,-3.42,-1.2,9.7
903.0,-2.87,-1.02,9.61
916.0,-2.24,-0.8,9.5
929.0,-1.75,-0.81,9.85
941.0,-1.75,-0.79,9.56
954.0,-1.87,-0.76,9.08
967.0,-1.77,-0.88,9.06
980.0,-1.37,-1.21,9.81
993.0,-0.95,-1.55,10.65
1006.0,-0.94,-1.78,10.98
1019.0,-1.4,-1.81,10.69
1032.0,-2.04,-1.79,9.18
1044.0,-2.74,-2.25,8.28
1057.0,-3.05,-2.66,8.85
1070.0,-2.46,-3.09,9.97
1083.0,-1.49,-3.28,11.12
1096.0,-0.34,-3.1,11.67
1109.0,0.45,-2.53,11.4
1122.0,0.69,-1.83,10.59
1135.0,0.31,-1.32,9.57
1147.0,-0.22,-1.27,9.0
1160.0,-0.34,-1.57,9.11
1173.0,0.17,-1.88,9.84
1186.0,1.17,-2.05,10.72
1199.0,1.83,-2.1,11.48
1212.0,2.32,-2.57,12.21
1225.0,1.98,-2.92,12.23
1237.0,0.96,-3.03,11.33
1250.0,0.31,-3.0,10.22
1263.0,0.46,-2.77,9.79
1276.0,1.46,-2.28,9.73
1289.0,2.87,-1.87,9.95
1302.0,4.24,-1.62,10.28
1315.0,4.92,-1.55,10.61
1327.0,5.09,-1.53,10.58
1340.0,5.19,-1.53,10.28
1353.0,5.39,-1.37,9.99
1366.0,5.75,-1.12,9.57
1379.0,6.32,-0.92,9.48
1392.0,6.92,-0.82,9.69
1405.0,6.99,-0.88,9.53
1417.0,6.5,-0.98,9.36
1430.0,6.09,-0.99,9.23
1443.0,6.01,-0.93,9.4
1456.0,6.17,-0.98,9.81
1469.0,6.31,-0.97,9.96
1482.0,6.21,-0.85,9.76
1495.0,5.88,-0.91,9.39
1507.0,5.16,-1.38,9.62
1520.0,4.23,-1.99,9.93
1533.0,3.76,-2.29,10.22
1546.0,3.47,-2.44,10.52
1559.0,3.06,-2.4,10.14
1572.0,2.2,-2.51,9.68
1585.0,1.15,-2.74,9.68
1597.0,0.27,-2.89,9.71
1610.0,-0.4,-2.98,9.79
1623.0,-0.83,-3.28,10.13
1636.0,-1.16,-3.56,10.73
1649.0,-1.31,-3.64,11.02
1662.0,-1.73,-3.55,10.71
1675.0,-2.31,-3.06,9.57
1688.0,-2.28,-2.38,8.98
1700.0,-1.81,-1.74,9.32
1713.0,-1.19,-1.45,9.96
1726.0,-0.66,-1.3,10.3
1739.0,-0.67,-1.07,10.55
1752.0,-1.14,-0.93,10.23
1765.0,-1.63,-0.8,10.0
1778.0,-1.97,-0.78,10.09
1791.0,-2.35,-0.76,10.0
1803.0,-2.79,-0.71,9.77
1816.0,-3.09,-0.48,9.28
1829.0,-3.39,-0.25,8.91
1842.0,-3.68,-0.18,8.87
1855.0,-3.74,-0.13,9.01
1868.0,-3.57,-0.11,9.28
1881.0,-3.35,-0.09,9.52
1894.0,-3.22,-0.19,9.83
1906.0,-3.49,-0.4,10.1
1919.0,-3.98,-0.68,10.19
1932.0,-4.5,-0.86,10.1
1945.0,-4.81,-0.93,9.97
1958.0,-4.77,-0.92,9.94
1971.0,-4.35,-0.86,10.18
1984.0,-3.78,-0.78,10.58
1997.0,-3.31,-0.71,10.78
2009.0,-3.09,-0.7,10.8
2022.0,-3.01,-0.57,10.48
2035.0,-2.89,-0.44,10.28
2048.0,-2.82,-0.52,10.23
2061.0,-2.78,-0.76,10.48
2074.0,-2.79,-1.03,10.72
2087.0,-2.78,-1.16,10.57
2100.0,-2.68,-1.21,10.41
2112.0,-2.55,-1.14,10.11
2125.0,-2.4,-1.08,9.8
2138.0,-2.22,-1.17,9.76
2151.0,-1.99,-1.32,9.79
2164.0,-1.78,-1.42,9.65
2177.0,-1.47,-1.42,9.37
2190.0,-1.3,-1.21,8.94
2203.0,-0.99,-0.98,8.29
2215.0,-0.78,-0.9,8.21
2228.0,-0.5,-1.19,8.72
2241.0,-0.49,-1.66,9.19
2254.0,-0.29,-2.04,9.47
2267.0,0.09,-2.24,9.69
2280.0,0.51,-2.33,10.05
2293.0,0.67,-2.48,10.3
2306.0,0.8,-2.61,10.3
2318.0,1.02,-2.76,10.35
2331.0,1.51,-2.99,10.35
2344.0,2.61,-3.25,10.96
2357.0,3.93,-3.42,12.03
2370.0,5.12,-3.45,12.84
2383.0,5.21,-3.77,13.13
2396.0,5.2,-3.78,12.68
2408.0,5.4,-3.42,11.97
2421.0,6.07,-2.8,11.21
2434.0,6.94,-1.98,10.47
2447.0,7.6,-1.51,10.22
2460.0,7.86,-1.32,10.24
2473.0,7.72,-1.34,10.19
2486.0,7.09,-1.25,9.75
2498.0,6.37,-1.13,9.0
2511.0,5.78,-0.9,8.34
2524.0,5.47,-0.77,8.12
2537.0,5.47,-0.73,8.32
2550.0,5.39,-0.8,8.63
2563.0,5.36,-1.12,8.95
2576.0,5.46,-1.46,9.54
2588.0,5.29,-1.65,9.66
2601.0,4.5,-1.9,9.66
2614.0,3.37,-2.2,9.17
2627.0,2.43,-2.48,8.76
2640.0,2.08,-2.68,8.65
2653.0,2.4,-2.77,9.16
2666.0,2.68,-3.01,10.16
2678.0,2.57,-3.26,10.69
2691.0,2.16,-3.51,10.65
2704.0,1.69,-3.63,10.73
2717.0,1.57,-3.63,11.01
2730.0,1.44,-3.55,11.29
2743.0,1.1,-3.33,11.16
2756.0,0.29,-3.29,10.8
2768.0,-0.71,-3.26,10.45
2781.0,-1.4,-2.99,10.12
2794.0,-2.07,-2.75,9.84
2807.0,-2.55,-2.72,9.98
2820.0,-2.86,-2.91,10.41
2833.0,-2.82,-2.97,10.95
2846.0,-2.81,-2.56,10.78
2859.0,-2.96,-2.2,10.5
2871.0,-3.68,-1.97,9.85
2884.0,-4.57,-1.77,8.98
2897.0,-5.21,-1.6,8.44
2910.0,-5.48,-1.48,8.26
2923.0,-5.38,-1.35,8.49
2936.0,-5.19,-1.25,8.71
2949.0,-5.21,-1.32,9.18
2962.0,-5.46,-1.47,9.35
2974.0,-5.64,-1.43,9.26
2987.0,-5.71,-1.29,9.17
3000.0,-5.59,-1.09,8.97
3013.0,-5.6,-0.91,8.99
3026.0,-5.69,-0.88,9.0
3039.0,-5.86,-0.8,8.82
3052.0,-5.97,-0.78,8.78
3065.0,-6.15,-0.97,9.03
3077.0,-6.23,-1.18,9.31
3090.0,-6.12,-1.2,9.17
3103.0,-5.73,-1.09,8.92
3116.0,-5.13,-1.04,9.22
3129.0,-4.62,-1.0,9.68
3142.0,-4.33,-1.06,9.69
3155.0,-4.24,-1.09,9.34
3168.0,-4.11,-1.2,9.1
3180.0,-4.12,-1.5,9.16
3193.0,-4.36,-1.9,9.28
3206.0,-4.49,-2.14,9.25
3219.0,-4.34,-2.25,9.19
3232.0,-3.65,-2.34,9.38
3245.0,-2.8,-2.32,9.66
3258.0,-1.96,-2.19,9.85
3271.0,-1.45,-1.94,9.57
3283.0,-1.5,-2.05,9.23
3296.0,-1.69,-2.48,9.18
3309.0,-1.94,-3.08,9.35
3322.0,-1.87,-3.52,9.73
3335.0,-1.7,-3.6,9.91
3348.0,-1.31,-3.18,9.26
3361.0,-0.36,-2.76,8.99
3374.0,1.2,-2.53,9.81
3386.0,2.52,-2.64,11.44
3399.0,2.85,-3.05,12.45
3412.0,2.02,-3.43,12.14
3425.0,0.87,-3.62,11.1
3438.0,0.19,-3.52,10.06
3451.0,0.85,-3.22,9.77
3464.0,2.87,-2.82,10.55
3476.0,4.87,-2.63,11.52
3489.0,6.09,-2.54,12.24
3502.0,6.18,-2.64,12.17
3515.0,5.59,-2.66,11.48
3528.0,4.96,-2.57,10.73
3541.0,4.81,-2.34,10.2
3554.0,5.11,-2.22,10.21
3566.0,5.77,-2.26,10.6
3579.0,6.29,-2.27,10.89
3592.0,6.27,-2.14,10.53
3605.0,5.73,-1.98,9.96
3618.0,4.79,-1.98,9.53
3631.0,4.03,-1.96,9.31
3644.0,3.51,-2.1,9.43
3656.0,3.27,-2.24,9.61
3669.0,3.37,-2.37,9.87
3682.0,3.7,-2.24,10.1
3695.0,3.86,-1.77,9.78
3708.0,3.32,-1.59,9.08
3721.0,3.05,-2.08,9.21
3734.0,2.63,-2.86,10.08
3746.0,1.87,-3.46,10.48
3759.0,1.47,-3.68,10.36
3772.0,1.99,-3.74,10.72
3785.0,2.64,-3.58,11.03
3798.0,2.96,-3.4,11.15
3811.0,2.11,-3.24,10.77
3824.0,0.59,-3.31,9.71
3836.0,-0.87,-3.59,9.49
3849.0,-1.82,-3.58,9.33
3862.0,-1.98,-3.49,9.45
3875.0,-1.45,-3.24,9.87
3888.0,-1.18,-2.92,10.25
3901.0,-1.48,-2.76,9.93
3914.0,-2.26,-2.71,9.53
3927.0,-3.14,-2.8,9.37
3939.0,-3.86,-2.8,9.29
3952.0,-4.31,-2.69,9.21
3965.0,-4.5,-2.58,9.16
3978.0,-4.36,-2.41,9.39
3991.0,-4.24,-2.03,9.17
4004.0,-4.34,-1.62,8.66
4017.0,-4.48,-1.35,8.36
4030.0,-4.58,-1.29,8.46
4042.0,-4.76,-1.46,8.65
4055.0,-4.98,-1.6,8.67
4068.0,-5.1,-1.8,9.02
4081.0,-5.26,-1.99,9.38
4094.0,-5.48,-2.11,9.56
4107.0,-5.77,-2.11,9.47
4120.0,-5.97,-1.97,9.25
4133.0,-6.11,-1.88,9.14
4145.0,-6.08,-1.82,9.07
4158.0,-5.93,-1.7,9.07
4171.0,-5.71,-1.57,9.1
4184.0,-5.39,-1.42,9.12
4197.0,-5.14,-1.33,9.08
4210.0,-4.97,-1.36,9.14
4223.0,-4.67,-1.51,9.44
4235.0,-4.38,-1.58,9.82
4248.0,-4.23,-1.6,9.73
4261.0,-4.24,-1.72,9.73
4274.0,-4.3,-1.85,9.48
4287.0,-4.22,-1.9,9.19
4300.0,-3.73,-2.06,9.6
4313.0,-3.41,-2.2,10.06
4326.0,-3.43,-2.27,9.84
4339.0,-3.5,-2.37,9.53
4351.0,-3.56,-2.48,9.23
4364.0,-3.4,-2.53,8.89
4377.0,-2.96,-2.53,9.1
4390.0,-2.51,-2.59,9.62
4403.0,-2.21,-2.77,9.88
4416.0,-2.15,-3.02,10.32
4429.0,-2.19,-3.06,10.13
4441.0,-2.06,-3.28,10.42
4454.0,-2.14,-3.6,10.96
4467.0,-2.24,-3.82,11.01
4480.0,-2.29,-3.59,10.69
4493.0,-1.91,-2.8,9.47
4506.0,-1.06,-1.87,8.32
4519.0,0.44,-1.33,7.88
4532.0,2.03,-1.3,8.88
4544.0,3.01,-1.94,10.08
4557.0,2.91,-2.83,11.03
4570.0,2.57,-3.52,11.29
4583.0,2.66,-3.56,11.08
4596.0,3.39,-3.15,10.61
4609.0,4.7,-2.54,10.36
4622.0,5.63,-2.46,11.01
4634.0,5.88,-2.85,11.78
4647.0,5.62,-3.33,12.12
4660.0,4.96,-3.53,11.79
4673.0,4.46,-3.36,11.16
4686.0,4.11,-3.14,10.55
4699.0,4.0,-3.01,10.24
4712.0,4.53,-3.03,10.42
4724.0,5.09,-2.83,10.87
4737.0,5.39,-2.48,11.09
4750.0,4.73,-2.12,10.68
4763.0,3.73,-2.18,9.93
4776.0,3.32,-2.3,9.87
4789.0,3.19,-2.24,9.81
4802.0,2.81,-2.28,9.5
4814.0,2.49,-2.64,9.34
4827.0,2.24,-3.11,9.82
4840.0,3.08,-3.03,10.53
4853.0,3.9,-2.72,11.32
4866.0,4.01,-2.47,11.05
4879.0,3.29,-2.45,10.39
4892.0,2.01,-2.83,10.11
4905.0,1.01,-3.18,9.72
4917.0,0.5,-3.45,9.67
4930.0,0.35,-3.6,9.6
4943.0,0.79,-3.21,9.71
4956.0,1.31,-2.81,10.17
4969.0,1.61,-2.59,10.56
4982.0,0.94,-2.62,10.5
4995.0,-0.34,-2.91,9.94
5007.0,-1.52,-3.31,9.74
5020.0,-2.19,-3.28,9.61
5033.0,-2.36,-3.04,9.79
5046.0,-1.6,-2.65,10.16
5059.0,-0.19,-2.19,11.26
5072.0,0.23,-1.68,11.99
5085.0,-1.12,-1.62,11.21
5097.0,-3.45,-1.99,9.93
5110.0,-5.63,-2.31,8.86
5123.0,-6.93,-2.45,8.25
5136.0,-7.24,-2.28,8.35
5149.0,-7.13,-2.06,8.79
5162.0,-6.74,-1.72,8.92
5175.0,-6.34,-1.29,9.03
5188.0,-5.98,-1.11,9.16
5200.0,-6.02,-1.18,9.42
5213.0,-6.49,-1.4,9.27
5226.0,-6.96,-1.53,8.99
5239.0,-7.14,-1.45,8.68
5252.0,-6.89,-1.16,8.57
5265.0,-6.47,-0.78,8.32
5278.0,-6.0,-0.4,8.17
5291.0,-5.54,-0.2,8.2
5303.0,-5.24,-0.08,8.24
5316.0,-5.12,-0.18,8.37
5329.0,-5.02,-0.4,8.71
5342.0,-5.04,-0.6,8.77
5355.0,-4.99,-0.84,8.81
5368.0,-4.83,-0.99,9.07
5381.0,-4.54,-1.11,9.1
5394.0,-4.37,-1.39,9.32
5406.0,-4.46,-1.86,9.58
5419.0,-4.42,-2.25,9.64
5432.0,-4.02,-2.52,9.99
5445.0,-3.64,-2.58,10.24
5458.0,-3.1,-2.69,10.22
5471.0,-2.68,-2.71,10.25
5484.0,-2.47,-2.76,10.0
5497.0,-2.3,-2.87,9.8
5509.0,-2.08,-3.31,10.54
5522.0,-1.86,-4.0,11.35
5535.0,-1.63,-4.48,11.79
5548.0,-1.38,-4.83,12.03
5561.0,-1.1,-4.87,11.67
5574.0,-0.88,-4.53,11.05
5587.0,-0.99,-4.29,10.01
5600.0,-0.46,-3.65,9.3
5612.0,0.4,-3.11,8.98
5625.0,1.43,-2.69,8.77
5638.0,2.58,-2.43,8.95
5651.0,3.73,-2.49,9.94
5664.0,4.24,-2.75,10.87
5677.0,4.17,-2.99,10.91
5690.0,3.85,-3.0,10.34
5702.0,4.06,-2.72,9.59
5715.0,4.72,-2.2,8.95
5728.0,5.48,-1.86,8.89
5741.0,6.3,-1.89,9.56
5754.0,6.89,-2.14,10.38
5767.0,6.59,-2.49,11.11
5780.0,6.24,-3.2,11.14
5792.0,5.6,-3.96,11.09
5805.0,4.9,-4.1,10.99
5818.0,4.62,-3.96,10.75
5831.0,4.56,-3.85,10.63
5844.0,4.51,-3.66,10.48
5857.0,4.23,-3.34,9.99
5870.0,4.03,-2.75,9.16
5882.0,4.05,-2.26,8.71
5895.0,4.16,-2.17,8.93
5908.0,4.36,-2.38,9.33
5921.0,4.46,-2.57,9.54
5934.0,4.46,-2.71,9.5
5947.0,4.3,-2.87,9.7
5960.0,3.9,-3.18,10.04
5972.0,3.37,-3.34,10.2
5985.0,2.78,-3.41,10.0
5998.0,2.35,-3.29,9.65
6011.0,2.34,-3.14,9.47
6024.0,2.57,-3.28,10.13
6037.0,2.2,-3.62,10.61
6050.0,1.28,-3.72,10.39
6063.0,0.63,-3.72,9.79
6075.0,0.21,-3.38,9.25
6088.0,-0.48,-3.48,9.31
6101.0,-1.18,-3.69,9.11
6114.0,-1.53,-3.81,10.11
6127.0,-1.66,-3.92,10.92
6140.0,-1.67,-3.67,11.07
6153.0,-1.97,-3.16,10.58
6165.0,-2.39,-2.74,9.97
6178.0,-2.63,-2.37,9.76
6191.0,-2.92,-2.15,9.88
6204.0,-3.39,-2.1,9.99
6217.0,-3.87,-2.0,9.9
6230.0,-4.57,-1.94,9.71
6243.0,-5.2,-1.83,9.45
6256.0,-5.55,-1.73,9.38
6268.0,-5.95,-1.59,9.13
6281.0,-6.17,-1.32,8.78
6294.0,-6.28,-1.14,8.65
6307.0,-6.31,-1.06,8.69
6320.0,-6.17,-1.07,9.06
6333.0,-6.2,-1.06,9.19
6346.0,-6.26,-0.95,8.94
6359.0,-6.63,-0.84,8.71
6371.0,-6.92,-0.84,8.38
6384.0,-6.77,-0.74,8.56
6397.0,-6.43,-0.58,8.63
6410.0,-6.1,-0.37,8.48
6423.0,-5.87,-0.25,8.26
6436.0,-5.73,-0.31,8.18
6449.0,-5.51,-0.45,8.2
6462.0,-5.25,-0.58,8.37
6474.0,-4.85,-0.73,8.49
6487.0,-4.24,-0.82,8.81
6500.0,-3.59,-0.95,9.3
6513.0,-3.06,-1.03,9.63
6526.0,-2.78,-1.01,9.48
6539.0,-2.58,-1.0,9.13
6552.0,-2.51,-1.2,9.12
6565.0,-2.56,-1.58,9.09
6577.0,-2.93,-2.05,9.09
6590.0,-3.31,-2.59,9.0
6603.0,-3.44,-3.16,9.55
6616.0,-3.21,-3.74,10.58
6629.0,-2.81,-4.01,11.35
6642.0,-2.32,-3.85,11.23
6655.0,-1.66,-3.3,10.51
6668.0,-1.08,-2.63,9.76
6680.0,-0.87,-2.25,9.24
6693.0,-0.83,-2.26,8.92
6706.0,-0.91,-2.58,9.19
6719.0,-1.02,-3.12,9.83
6732.0,-0.99,-3.47,10.16
6745.0,-1.3,-3.95,10.1
6758.0,-1.28,-4.16,10.13
6771.0,-1.02,-4.39,10.4
6783.0,-0.73,-4.54,11.04
6796.0,-0.27,-4.53,11.47
6809.0,0.59,-4.3,11.39
6822.0,1.71,-3.92,11.18
6835.0,2.55,-3.4,10.72
6848.0,2.87,-3.01,10.11
6861.0,2.95,-3.08,10.27
6873.0,3.27,-3.38,10.78
6886.0,3.98,-3.51,10.98
6899.0,4.87,-3.2,11.07
6912.0,5.75,-2.88,11.2
6925.0,5.89,-2.58,11.11
6938.0,5.53,-2.42,10.59
6951.0,5.28,-2.43,10.31
6963.0,5.49,-2.46,10.59
6976.0,5.75,-2.46,10.83
6989.0,5.76,-2.29,10.5
7002.0,5.47,-2.08,9.76
7015.0,5.17,-1.92,9.21
7028.0,4.92,-1.86,9.14
7041.0,4.69,-1.92,9.33
7053.0,4.32,-2.04,9.48
7066.0,3.91,-2.16,9.42
7079.0,3.48,-2.23,9.29
7092.0,3.02,-2.31,9.08
7105.0,2.54,-2.38,8.71
7118.0,2.73,-2.48,8.89
7131.0,3.27,-2.6,9.84
7144.0,3.32,-2.92,10.58
7156.0,2.88,-3.24,10.61
7169.0,2.05,-3.52,10.41
7182.0,1.02,-3.73,9.97
7195.0,0.51,-3.87,9.88
7208.0,0.55,-3.88,10.24
7221.0,0.81,-3.72,10.71
7234.0,0.54,-3.61,10.28
7246.0,-0.28,-3.39,9.61
7259.0,-0.72,-3.23,9.53
7272.0,-1.22,-3.18,9.67
7285.0,-1.9,-3.35,9.89
7298.0,-2.61,-3.56,9.99
7311.0,-3.29,-3.64,9.99
7324.0,-3.54,-3.54,10.16
7336.0,-3.7,-3.29,10.21
7349.0,-3.76,-3.08,10.31
7362.0,-3.84,-2.84,10.23
7375.0,-4.15,-2.57,10.0
7388.0,-4.33,-2.29,9.8
7401.0,-4.53,-1.95,9.43
7414.0,-4.86,-1.72,9.14
7427.0,-5.1,-1.5,8.9
7439.0,-5.08,-1.19,8.8
7452.0,-4.69,-0.93,8.93
7465.0,-4.77,-0.76,8.88
7478.0,-5.09,-0.76,8.75
7491.0,-5.6,-0.82,8.57
7504.0,-6.14,-0.91,8.48
7517.0,-6.46,-0.92,8.42
7530.0,-6.49,-0.89,8.45
7542.0,-6.47,-0.84,8.44
7555.0,-6.42,-0.8,8.39
7568.0,-6.21,-0.73,8.47
7581.0,-5.87,-0.58,8.47
7594.0,-5.49,-0.48,8.41
7607.0,-5.14,-0.39,8.33
7620.0,-4.82,-0.37,8.39
7633.0,-4.42,-0.44,8.64
7645.0,-3.98,-0.64,9.02
7658.0,-3.6,-0.8,9.31
7671.0,-3.39,-0.92,9.32
7684.0,-3.31,-0.98,9.07
7697.0,-3.39,-1.05,8.6
7710.0,-3.29,-1.3,8.46
7723.0,-2.96,-1.62,8.98
7736.0,-2.68,-1.94,9.52
7748.0,-2.41,-2.07,9.62
7761.0,-2.26,-2.02,9.39
7774.0,-2.19,-1.98,9.06
7787.0,-2.06,-2.17,9.11
7800.0,-1.64,-2.37,9.4
7813.0,-1.27,-2.45,9.65
7826.0,-0.77,-2.53,9.66
7839.0,-0.35,-2.6,9.79
7851.0,-0.43,-3.09,10.2
7864.0,-0.48,-3.8,10.78
7877.0,-0.1,-4.2,11.61
7890.0,0.47,-4.4,12.18
7903.0,0.97,-4.2,11.91
7916.0,1.31,-3.8,11.12
7929.0,1.66,-3.35,10.41
7941.0,2.05,-3.16,10.01
7954.0,2.47,-3.2,10.3
7967.0,2.86,-3.35,10.55
7980.0,3.02,-3.46,10.55
7993.0,2.97,-3.2,10.04
8006.0,3.3,-2.81,9.33
8019.0,4.19,-2.55,9.54
8032.0,5.28,-2.71,10.46
8044.0,5.91,-2.87,11.23
8057.0,5.98,-2.98,11.55
8070.0,5.81,-2.94,11.42
8083.0,5.74,-2.7,11.24
8096.0,5.88,-2.45,11.15
8109.0,5.88,-2.07,10.72
8122.0,5.81,-1.48,9.91
8134.0,5.6,-1.04,9.32
8147.0,5.33,-0.78,9.03
8160.0,5.08,-0.88,9.12
8173.0,4.99,-1.11,9.39
8186.0,4.78,-1.32,9.4
8199.0,4.49,-1.32,9.01
8212.0,3.99,-1.43,8.61
8224.0,3.5,-1.68,8.52
8237.0,2.77,-2.14,8.92
8250.0,1.84,-2.91,9.46
8263.0,1.17,-3.55,9.7
8276.0,0.76,-3.76,9.74
8289.0,0.9,-3.84,9.67
8302.0,0.66,-4.05,10.3
8314.0,0.31,-4.65,10.92
8327.0,-0.68,-5.17,11.2
8340.0,-1.61,-5.43,11.14
8353.0,-2.2,-5.39,11.01
8366.0,-2.61,-4.93,10.62
8379.0,-2.89,-4.19,9.83
8392.0,-2.94,-3.51,9.44
8404.0,-2.7,-3.02,9.45
8417.0,-2.4,-2.63,9.7
8430.0,-2.4,-2.3,9.69
8443.0,-2.64,-2.08,9.63
8456.0,-3.13,-1.76,9.21
8469.0,-3.57,-1.35,8.6
8482.0,-3.47,-0.73,8.1
8495.0,-2.96,-0.16,8.01
8507.0,-2.67,-0.06,8.89
8520.0,-2.91,-0.25,9.53
8533.0,-3.66,-0.48,9.54
8546.0,-4.73,-0.7,9.21
8559.0,-5.68,-0.89,8.89
8572.0,-6.25,-0.99,8.67
8585.0,-6.24,-0.99,8.85
8598.0,-6.04,-0.93,9.1
8610.0,-5.81,-0.8,9.1
8623.0,-5.68,-0.7,9.23
8636.0,-5.74,-0.63,9.14
8649.0,-5.86,-0.49,8.82
8662.0,-6.08,-0.32,8.27
8675.0,-6.15,-0.22,7.86
8688.0,-6.15,-0.23,7.75
8701.0,-5.94,-0.25,7.8
8713.0,-5.57,-0.33,8.01
8726.0,-5.07,-0.41,8.48
8739.0,-4.65,-0.56,9.05
8752.0,-4.45,-0.71,9.21
8765.0,-4.3,-0.83,8.99
8778.0,-4.13,-0.92,8.71
8791.0,-4.07,-1.15,8.89
8804.0,-4.18,-1.55,9.14
8816.0,-4.36,-1.94,9.08
8829.0,-4.23,-2.26,9.24
8842.0,-3.81,-2.23,9.31
8855.0,-3.13,-2.02,9.05
8868.0,-2.5,-1.96,9.07
8881.0,-1.92,-2.04,9.43
8894.0,-1.57,-2.23,9.83
8907.0,-1.31,-2.57,9.94
8919.0,-1.19,-2.83,10.05
8932.0,-1.01,-3.28,10.25
8945.0,-0.57,-3.36,10.68
8958.0,-0.32,-3.59,11.09
8971.0,-0.03,-3.88,11.6
8984.0,0.23,-4.14,11.97
8997.0,0.64,-4.2,11.97
9010.0,0.96,-3.89,11.61
9022.0,1.15,-3.48,10.93
9035.0,1.31,-3.16,10.1
9048.0,1.38,-2.94,9.48
9061.0,1.66,-2.9,9.4
9074.0,2.32,-3.13,10.04
9087.0,3.18,-3.43,10.91
9100.0,4.1,-3.5,11.37
9112.0,4.7,-3.27,11.22
9125.0,4.89,-2.83,10.56
9138.0,4.88,-2.62,10.14
9151.0,4.85,-2.64,9.87
9164.0,5.03,-2.78,9.85
9177.0,5.44,-2.89,9.95
9190.0,5.78,-3.12,10.45
9202.0,5.69,-3.33,10.71
9215.0,5.03,-3.5,10.55
9228.0,4.21,-3.44,9.86
9241.0,3.69,-3.03,8.99
9254.0,3.59,-2.49,8.5
9267.0,3.75,-2.27,8.67
9280.0,3.89,-2.42,9.12
9292.0,3.97,-2.57,9.51
9305.0,3.91,-2.73,9.75
9318.0,3.55,-3.04,9.97
9331.0,2.94,-3.31,9.72
9344.0,2.1,-3.47,9.17
9357.0,1.34,-3.66,8.86
9370.0,1.11,-3.63,8.6
9382.0,1.38,-3.66,8.87
9395.0,1.61,-3.82,9.27
9408.0,1.57,-4.06,9.66
9421.0,1.34,-4.32,10.16
9434.0,0.57,-4.65,10.39
9447.0,-0.7,-4.92,10.23
9460.0,-1.84,-5.16,10.06
9472.0,-2.57,-5.21,10.07
9485.0,-2.93,-4.96,9.94
9498.0,-2.98,-4.46,9.75
9511.0,-3.17,-3.87,9.3
9524.0,-3.66,-3.43,9.03
9537.0,-4.1,-3.15,9.21
9550.0,-4.38,-2.87,9.3
9563.0,-4.41,-2.64,9.74
9575.0,-4.33,-2.3,9.84
9588.0,-4.35,-1.94,9.56
9601.0,-4.52,-1.59,9.24
9614.0,-4.79,-1.39,9.04
9627.0,-4.84,-1.26,9.01
9640.0,-4.88,-1.27,9.28
9653.0,-5.08,-1.47,9.59
9666.0,-5.38,-1.63,9.84
9678.0,-5.85,-1.56,9.71
9691.0,-6.41,-1.25,8.85
9704.0,-6.87,-0.96,7.96
9717.0,-6.92,-0.87,7.68
9730.0,-6.64,-1.05,8.18
9743.0,-6.33,-1.34,8.82
9756.0,-6.17,-1.48,8.91
9769.0,-5.98,-1.46,8.73
9781.0,-5.74,-1.37,8.71
9794.0,-5.6,-1.34,8.54
9807.0,-5.6,-1.32,8.33
9820.0,-5.55,-1.21,7.87
9833.0,-5.36,-1.17,7.66
9846.0,-4.79,-1.36,7.93
9859.0,-3.87,-1.63,8.86
9872.0,-3.27,-1.74,9.49
9884.0,-3.06,-1.66,9.16
9897.0,-3.19,-1.59,8.56
9910.0,-3.37,-1.7,8.22
9923.0,-3.44,-2.11,8.33
9936.0,-3.29,-2.59,9.04
9949.0,-2.85,-2.91,9.54
9962.0,-2.3,-3.12,9.88
9975.0,-1.58,-3.1,9.93
9987.0,-0.95,-2.82,9.76
10000.0,-0.76,-2.5,9.25
10013.0,-0.77,-2.51,8.66
10026.0,-0.85,-2.99,8.68
10039.0,-0.45,-3.85,9.8
10052.0,-0.4,-4.74,11.3
10065.0,-0.63,-5.34,11.54
10078.0,-0.47,-5.26,11.22
10090.0,0.21,-4.87,10.96
10103.0,1.19,-4.09,10.67
10116.0,2.24,-3.34,10.18
10129.0,3.13,-2.86,9.88
10142.0,3.53,-2.77,10.14
10155.0,3.58,-3.03,10.77
10168.0,3.45,-3.43,11.25
10180.0,3.24,-3.71,11.44
10193.0,3.12,-3.65,11.05
10206.0,3.05,-3.51,10.61
10219.0,3.18,-3.34,10.32
10232.0,3.72,-3.34,10.65
10245.0,4.3,-3.49,11.44
10258.0,4.46,-3.41,11.47
10270.0,4.57,-3.37,11.22
10283.0,4.35,-2.94,10.54
10296.0,3.96,-2.64,9.95
10309.0,3.69,-2.42,9.9
10322.0,3.57,-2.32,10.06
10335.0,3.52,-2.17,10.03
10348.0,3.67,-2.06,10.06
10360.0,3.82,-1.89,10.12
10373.0,3.54,-1.85,9.83
10386.0,3.0,-2.21,9.73
10399.0,2.72,-2.67,10.2
10412.0,2.48,-3.06,10.67
10425.0,2.17,-3.26,10.79
10438.0,1.67,-3.35,10.57
10450.0,1.06,-3.28,9.85
10463.0,0.82,-3.43,9.56
10476.0,1.1,-3.45,9.95
10489.0,1.07,-3.2,9.75
10502.0,1.04,-3.04,9.55
10515.0,0.86,-2.85,9.32
10528.0,0.59,-2.59,8.87
10540.0,-0.02,-2.54,8.43
10553.0,-0.94,-3.08,8.95
10566.0,-1.88,-3.85,9.69
10579.0,-2.57,-4.35,10.28
10592.0,-2.92,-4.22,10.27
10605.0,-3.03,-3.56,9.41
10618.0,-3.03,-2.95,8.86
10631.0,-3.06,-2.62,8.61
10643.0,-3.42,-2.39,8.28
10656.0,-3.94,-2.35,8.26
10669.0,-4.33,-2.46,8.37
10682.0,-4.57,-2.49,8.67
10695.0,-4.75,-2.44,8.87
10708.0,-4.92,-2.26,8.6
10721.0,-5.04,-2.05,8.4
10734.0,-5.18,-1.91,8.25
10746.0,-5.49,-1.96,8.38
10759.0,-5.86,-2.13,8.57
10772.0,-6.26,-2.22,8.47
10785.0,-6.56,-2.22,8.37
10798.0,-6.64,-2.13,8.36
10811.0,-6.42,-1.99,8.57
10824.0,-6.08,-1.85,8.81
10837.0,-5.85,-1.73,8.94
10849.0,-5.68,-1.7,8.98
10862.0,-5.57,-1.77,9.11
10875.0,-5.55,-1.84,9.21
10888.0,-5.46,-1.91,9.22
10901.0,-5.29,-2.0,9.3
10914.0,-5.06,-2.02,9.23
10927.0,-4.85,-1.98,9.01
10940.0,-4.73,-1.97,8.79
10952.0,-4.46,-1.98,8.53
10965.0,-4.01,-1.99,8.63
10978.0,-3.47,-2.04,8.93
10991.0,-3.06,-2.16,9.23
11004.0,-2.64,-2.31,9.37
11017.0,-2.07,-2.38,9.49
11030.0,-1.63,-2.55,9.72
11043.0,-1.48,-2.85,9.9
11055.0,-1.72,-3.26,9.98
11068.0,-2.17,-3.67,9.75
11081.0,-2.42,-4.02,9.67
11094.0,-2.0,-4.04,9.85
11107.0,-1.25,-4.04,10.0
11120.0,-0.1,-3.73,10.38
11133.0,0.77,-3.43,10.47
11146.0,0.98,-3.3,10.27
11158.0,0.95,-3.27,10.08
11171.0,0.94,-3.36,10.05
11184.0,1.1,-3.59,10.44
11197.0,1.57,-3.78,10.93
11210.0,1.89,-3.84,11.26
11223.0,2.21,-3.82,11.43
11236.0,2.74,-3.62,11.14
11248.0,3.13,-3.15,10.71
11261.0,3.54,-2.81,10.25
11274.0,3.81,-2.69,10.17
11287.0,3.88,-2.79,10.52
11300.0,3.7,-2.86,10.53
11313.0,3.58,-2.75,10.25
11326.0,3.6,-2.53,9.89
11338.0,3.85,-2.22,9.48
11351.0,4.31,-1.97,9.49
11364.0,4.74,-1.8,9.5
11377.0,4.87,-1.66,9.38
11390.0,4.64,-1.56,8.96
11403.0,4.47,-1.63,8.79
11416.0,4.28,-1.78,9.01
11428.0,4.13,-2.06,9.39
11441.0,4.07,-2.26,9.81
11454.0,3.91,-2.27,9.81
11467.0,3.67,-2.13,9.35
11480.0,3.38,-2.18,9.28
11493.0,3.25,-2.49,9.7
11506.0,3.2,-2.88,10.25
11518.0,2.8,-3.22,10.56
11531.0,1.99,-3.53,10.43
11544.0,1.03,-3.86,10.31
11557.0,0.53,-4.1,10.16
11570.0,1.27,-4.09,10.18
11583.0,2.12,-4.02,10.72
11596.0,3.17,-3.97,11.09
11608.0,3.45,-3.64,11.13
11621.0,2.82,-3.01,10.3
11634.0,1.8,-2.56,9.55
11647.0,0.69,-2.52,9.25
11660.0,-0.16,-2.74,9.26
11673.0,-0.84,-3.01,9.56
11686.0,-1.0,-2.87,9.82
11699.0,-1.44,-2.96,10.22
11711.0,-2.14,-2.82,9.82
11724.0,-2.76,-2.52,9.15
11737.0,-3.18,-2.31,9.0
11750.0,-3.54,-2.27,9.01
11763.0,-4.06,-2.36,9.09
11776.0,-4.61,-2.39,9.14
11789.0,-5.06,-2.25,8.96
11802.0,-5.47,-2.15,8.9
11814.0,-5.53,-2.06,9.17
11827.0,-5.44,-1.89,9.37
11840.0,-5.4,-1.69,9.34
11853.0,-5.51,-1.53,9.27
11866.0,-5.81,-1.51,9.16
11879.0,-6.22,-1.57,9.04
11892.0,-6.36,-1.6,9.03
11905.0,-6.41,-1.63,9.19
11917.0,-6.48,-1.68,9.28
11930.0,-6.42,-1.68,9.33
11943.0,-6.15,-1.66,9.44
11956.0,-5.83,-1.55,9.46
11969.0,-5.64,-1.45,9.38
11982.0,-5.43,-1.4,9.34
11995.0,-5.2,-1.37,9.41
12008.0,-4.88,-1.31,9.31
12020.0,-4.43,-1.4,9.41
12033.0,-4.16,-1.55,9.66
12046.0,-4.15,-1.72,9.5
12059.0,-4.39,-1.85,8.94
12072.0,-4.35,-2.11,8.85
12085.0,-4.19,-2.51,9.49
12098.0,-3.95,-2.89,10.01
12111.0,-3.7,-3.09,10.19
12123.0,-3.16,-3.01,9.92
12136.0,-2.4,-2.66,9.55
12149.0,-1.6,-2.3,9.44
12162.0,-1.04,-2.17,9.7
12175.0,-1.16,-2.58,10.41
12188.0,-1.83,-3.43,10.87
12201.0,-2.12,-3.97,10.99
12214.0,-1.78,-4.01,11.26
12226.0,-0.7,-3.63,11.49
12239.0,0.26,-3.15,11.29
12252.0,1.12,-2.35,10.73
12265.0,1.61,-1.53,9.53
12278.0,1.63,-1.04,8.71
12291.0,1.58,-0.85,8.25
12304.0,1.41,-1.22,8.18
12316.0,1.16,-2.06,8.84
12329.0,1.35,-2.85,9.85
12342.0,2.19,-3.15,10.61
12355.0,3.54,-2.72,10.57
12368.0,4.9,-1.94,10.05
12381.0,5.9,-1.39,9.74
12394.0,6.45,-1.12,9.54
12406.0,6.58,-1.36,9.78
12419.0,6.35,-1.84,10.11
12432.0,6.19,-2.39,10.48
12445.0,6.34,-2.86,11.27
12458.0,6.37,-2.99,11.29
12471.0,5.88,-2.88,10.49
12484.0,5.26,-2.69,9.71
12496.0,4.62,-2.44,9.22
12509.0,4.4,-2.26,9.24
12522.0,4.44,-2.17,9.51
12535.0,4.4,-2.17,9.62
12548.0,4.2,-2.23,9.59
12561.0,3.96,-2.34,9.62
12574.0,3.57,-2.39,9.69
12586.0,3.29,-2.42,9.96
12599.0,3.03,-2.57,10.39
12612.0,2.78,-2.69,10.5
12625.0,2.37,-2.99,10.8
12638.0,1.87,-3.22,11.01
12651.0,1.38,-3.16,10.79
12664.0,1.03,-3.17,10.62
12676.0,0.46,-3.48,10.55
12689.0,-0.35,-3.99,10.53
12702.0,-0.93,-4.17,10.49
12715.0,-1.15,-4.12,10.56
12728.0,-1.62,-3.98,10.32
12741.0,-2.25,-3.83,9.8
12754.0,-2.57,-3.45,9.39
12767.0,-2.68,-2.94,8.96
12779.0,-3.0,-2.62,8.45
12792.0,-2.96,-2.58,8.6
12805.0,-2.66,-2.6,8.96
12818.0,-2.38,-2.61,9.43
12831.0,-2.48,-2.51,9.44
12844.0,-2.9,-2.32,9.0
12857.0,-3.39,-2.16,8.53
