timestamp,accX,accY,accZ
2.0,-6.38,-0.64,7.83
15.0,-5.2,-0.45,6.43
28.0,-6.16,-0.69,8.1
41.0,-6.4,-0.96,9.01
54.0,-6.61,-1.12,9.39
67.0,-6.81,-1.07,9.21
79.0,-6.71,-0.87,9.14
92.0,-6.51,-0.75,9.35
105.0,-6.48,-0.76,9.45
118.0,-6.58,-0.91,9.63
131.0,-6.67,-1.11,9.83
144.0,-6.84,-1.36,9.92
157.0,-6.96,-1.51,9.91
170.0,-6.91,-1.55,9.74
182.0,-6.52,-1.43,9.43
195.0,-5.79,-1.35,9.55
208.0,-4.74,-1.33,10.16
221.0,-3.91,-1.2,10.61
234.0,-3.53,-1.01,10.37
247.0,-3.56,-0.8,9.2
260.0,-3.29,-0.99,8.58
273.0,-2.83,-1.4,8.95
285.0,-2.27,-1.64,9.61
298.0,-1.86,-1.93,9.82
311.0,-1.73,-2.27,10.05
324.0,-1.63,-2.42,9.76
337.0,-1.4,-2.55,9.56
350.0,-0.68,-2.47,9.28
363.0,0.3,-2.39,9.71
376.0,1.39,-2.57,10.56
388.0,2.27,-2.73,11.13
401.0,2.98,-2.91,11.47
414.0,3.82,-2.94,11.79
427.0,4.79,-2.72,12.03
440.0,5.69,-2.43,12.1
453.0,6.16,-2.34,12.11
466.0,6.2,-2.37,11.77
478.0,6.01,-2.44,11.37
491.0,5.88,-2.61,11.0
504.0,6.13,-2.77,10.91
517.0,6.79,-2.81,11.23
530.0,7.3,-2.78,11.64
543.0,7.18,-2.84,11.6
556.0,6.5,-2.8,10.93
568.0,5.79,-2.53,9.93
581.0,5.54,-2.16,9.47
594.0,5.45,-1.91,9.51
607.0,5.94,-2.04,9.9
620.0,6.31,-2.33,10.83
633.0,6.24,-2.65,11.4
646.0,5.29,-2.99,11.29
658.0,4.07,-3.16,10.62
671.0,2.61,-3.21,9.74
684.0,1.3,-3.03,8.82
697.0,1.79,-2.98,8.52
710.0,3.13,-2.73,9.95
723.0,4.15,-2.53,11.02
736.0,4.35,-2.71,11.57
748.0,3.27,-2.78,11.23
761.0,1.3,-2.88,9.89
774.0,-0.42,-2.93,8.97
787.0,-1.74,-2.82,8.78
800.0,-2.15,-2.46,8.81
813.0,-2.24,-1.91,8.66
826.0,-1.84,-1.53,8.79
838.0,-0.96,-1.7,10.06
851.0,-0.7,-1.96,11.77
864.0,-1.85,-2.02,11.56
877.0,-3.66,-1.88,10.25
890.0,-5.08,-1.65,9.24
903.0,-5.73,-1.42,8.96
916.0,-5.79,-1.22,9.17
929.0,-5.57,-0.89,9.25
941.0,-5.32,-0.54,9.09
954.0,-5.01,-0.22,8.91
967.0,-4.85,-0.15,9.23
980.0,-5.07,-0.17,9.45
993.0,-5.6,-0.26,9.29
1006.0,-6.05,-0.47,9.13
1019.0,-6.6,-0.72,9.15
1032.0,-7.03,-0.94,9.06
1044.0,-7.46,-1.06,8.81
1057.0,-7.61,-1.21,8.71
1070.0,-7.56,-1.36,9.02
1083.0,-7.46,-1.29,8.92
1096.0,-7.19,-1.23,8.79
1109.0,-6.63,-1.18,8.87
1122.0,-5.95,-1.13,9.14
1135.0,-5.05,-1.06,9.21
1147.0,-4.17,-0.96,9.05
1160.0,-3.53,-1.23,9.54
1173.0,-3.82,-1.63,10.06
1186.0,-4.75,-2.27,9.91
1199.0,-5.55,-3.04,9.49
1212.0,-5.36,-3.81,10.02
1225.0,-4.64,-4.3,10.89
1238.0,-3.58,-4.28,11.21
1250.0,-2.8,-3.49,10.3
1263.0,-2.16,-2.61,9.19
1276.0,-1.34,-2.16,8.73
1289.0,-0.35,-2.35,9.49
1302.0,0.04,-2.87,10.72
1315.0,0.22,-3.22,11.17
1328.0,0.79,-3.34,11.31
1341.0,1.89,-2.95,11.19
1353.0,3.04,-2.29,10.66
1366.0,3.85,-1.91,10.51
1379.0,4.45,-2.0,10.92
1392.0,5.36,-2.57,12.03
1405.0,6.32,-2.97,12.98
1418.0,6.99,-3.05,13.47
1431.0,7.19,-2.69,12.62
1443.0,7.23,-1.92,11.03
1456.0,7.41,-1.39,10.04
1469.0,7.8,-1.43,10.21
1482.0,8.13,-1.81,10.82
1495.0,8.23,-2.16,11.09
1508.0,7.94,-2.34,10.99
1521.0,7.27,-2.21,10.25
1533.0,6.58,-1.93,9.41
1546.0,6.23,-1.61,9.15
1559.0,6.11,-1.27,9.21
1572.0,6.08,-1.06,9.26
1585.0,6.0,-1.05,9.41
1598.0,5.86,-1.27,9.72
1611.0,5.46,-1.81,10.08
1623.0,4.9,-2.35,10.32
1636.0,4.15,-2.48,10.25
1649.0,3.56,-2.31,9.74
1662.0,2.78,-2.0,9.21
1675.0,2.11,-2.07,8.87
1688.0,2.67,-2.75,9.97
1701.0,3.41,-3.21,12.25
1713.0,2.98,-3.47,12.79
1726.0,1.3,-3.39,11.63
1739.0,-0.39,-3.15,10.3
1752.0,-1.67,-3.0,9.79
1765.0,-2.71,-2.67,9.28
1778.0,-3.31,-2.01,8.6
1791.0,-3.29,-1.35,8.32
1803.0,-2.68,-1.04,8.67
1816.0,-1.64,-1.39,10.43
1829.0,-1.95,-1.66,11.65
1842.0,-3.44,-2.08,11.16
1855.0,-5.04,-2.18,10.12
1868.0,-5.86,-2.0,9.53
1881.0,-5.97,-1.68,9.42
1894.0,-5.63,-1.39,9.71
1906.0,-5.21,-1.12,10.09
1919.0,-4.81,-0.61,9.94
1932.0,-4.79,-0.06,9.44
1945.0,-4.97,0.34,8.82
1958.0,-5.27,0.48,8.41
1971.0,-5.49,0.31,8.65
1984.0,-5.63,0.07,9.15
1997.0,-5.89,-0.36,9.5
2009.0,-6.11,-0.77,9.75
2022.0,-6.13,-0.94,9.81
2035.0,-6.24,-0.86,9.81
2048.0,-6.49,-0.83,9.48
2061.0,-6.69,-0.91,9.26
2074.0,-6.72,-0.93,9.01
2087.0,-6.38,-0.87,8.99
2100.0,-5.93,-0.68,8.85
2112.0,-5.38,-0.49,8.74
2125.0,-4.78,-0.52,8.89
2138.0,-4.67,-0.7,8.9
2151.0,-5.16,-1.1,8.79
2164.0,-5.31,-1.63,8.38
2177.0,-4.98,-2.05,8.58
2190.0,-4.26,-2.43,9.19
2202.0,-3.4,-2.65,9.81
2215.0,-2.83,-2.8,10.38
2228.0,-2.36,-2.86,10.12
2241.0,-1.95,-3.05,10.02
2254.0,-1.61,-3.18,9.67
2267.0,-1.03,-3.52,10.15
2280.0,0.11,-3.84,10.98
2293.0,1.23,-3.74,11.55
2305.0,2.24,-3.16,11.14
2318.0,2.98,-2.43,10.57
2331.0,3.85,-2.06,10.02
2344.0,4.58,-1.98,10.12
2357.0,5.74,-2.22,10.89
2370.0,6.88,-2.51,12.02
2383.0,7.37,-2.8,12.38
2395.0,7.16,-2.76,11.9
2408.0,6.98,-2.49,11.21
2421.0,7.31,-2.0,10.8
2434.0,7.95,-1.56,10.64
2447.0,8.34,-1.3,10.47
2460.0,8.62,-1.31,10.52
2473.0,8.56,-1.7,10.89
2485.0,8.07,-2.18,10.93
2498.0,7.36,-2.51,10.82
2511.0,6.77,-2.53,10.5
2524.0,6.26,-2.18,10.12
2537.0,6.54,-1.78,9.5
2550.0,6.85,-1.42,9.28
2563.0,6.78,-1.52,9.85
2575.0,6.3,-1.87,10.16
2588.0,5.01,-2.27,9.96
2601.0,3.62,-2.52,9.33
2614.0,2.52,-2.3,8.69
2627.0,2.45,-2.26,8.37
2640.0,3.58,-2.45,9.09
2653.0,5.06,-2.81,11.46
2665.0,4.92,-2.8,12.23
2678.0,3.16,-2.7,10.78
2691.0,1.52,-2.67,9.42
2704.0,0.32,-2.51,8.69
2717.0,-0.2,-2.04,8.31
2730.0,-0.38,-1.12,8.01
2743.0,-0.18,-0.6,8.13
2756.0,0.08,-0.79,9.32
2768.0,0.18,-1.72,11.05
2781.0,-0.72,-2.62,12.27
2794.0,-2.32,-2.95,11.75
2807.0,-4.21,-2.67,10.1
2820.0,-5.45,-2.23,8.92
2833.0,-5.91,-1.71,8.51
2846.0,-5.4,-1.19,8.68
2859.0,-4.61,-0.8,9.21
2871.0,-4.14,-0.34,9.34
2884.0,-4.27,-0.24,9.47
2897.0,-5.08,-0.48,9.61
2910.0,-6.07,-0.89,9.51
2923.0,-6.79,-1.23,9.59
2936.0,-7.13,-1.49,9.76
2949.0,-7.08,-1.5,9.99
2962.0,-6.79,-1.48,10.29
2974.0,-6.5,-1.56,10.89
2987.0,-6.45,-1.65,11.21
3000.0,-6.7,-1.63,11.08
3013.0,-7.01,-1.58,10.79
3026.0,-7.29,-1.47,10.44
3039.0,-7.07,-1.36,10.31
3052.0,-6.68,-1.2,10.35
3065.0,-6.09,-0.98,9.9
3077.0,-5.28,-0.7,9.62
3090.0,-4.33,-0.21,9.17
3103.0,-3.5,-0.1,9.23
3116.0,-3.3,-0.42,9.61
3129.0,-3.64,-0.92,9.38
3142.0,-3.94,-1.56,8.76
3155.0,-3.9,-2.06,8.2
3168.0,-3.19,-2.59,8.89
3180.0,-2.32,-3.26,10.17
3193.0,-0.98,-3.57,11.09
3206.0,0.63,-3.37,11.6
3219.0,1.63,-2.74,11.1
3232.0,2.02,-2.19,9.93
3245.0,1.8,-1.98,8.82
3258.0,1.59,-2.47,9.14
3270.0,1.9,-3.29,10.3
3283.0,2.77,-3.63,10.88
3296.0,4.09,-2.95,10.49
3309.0,5.29,-1.86,9.52
3322.0,6.01,-1.27,9.14
3335.0,6.76,-1.3,9.54
3348.0,7.43,-1.64,10.47
3360.0,7.71,-2.07,10.92
3373.0,7.32,-2.49,10.76
3386.0,6.93,-2.84,10.4
3399.0,7.14,-3.14,10.67
3412.0,7.76,-3.38,11.51
3425.0,8.51,-3.28,11.95
3438.0,8.84,-2.77,11.52
3450.0,8.52,-2.28,10.9
3463.0,7.86,-2.15,10.59
3476.0,7.24,-2.31,10.71
3489.0,6.89,-2.44,11.07
3502.0,6.53,-2.5,11.15
3515.0,6.23,-2.2,10.82
3528.0,5.86,-1.83,10.09
3540.0,5.3,-1.73,9.73
3553.0,4.78,-1.84,9.69
3566.0,4.58,-2.03,9.97
3579.0,4.04,-2.45,10.63
3592.0,3.35,-2.88,10.93
3605.0,2.71,-2.99,10.82
3618.0,2.21,-2.99,10.67
3630.0,2.07,-2.83,10.32
3643.0,1.47,-2.48,9.59
3656.0,1.14,-2.15,8.87
3669.0,0.75,-1.4,8.3
3682.0,0.49,-0.81,7.76
3695.0,0.17,-0.59,7.6
3708.0,-0.31,-0.81,7.59
3720.0,-0.52,-1.94,8.95
3733.0,-1.19,-2.89,10.75
3746.0,-2.33,-3.48,11.28
3759.0,-3.9,-3.42,10.48
3772.0,-5.15,-2.97,9.23
3785.0,-5.94,-2.33,8.26
3798.0,-6.02,-1.67,8.05
3811.0,-5.65,-1.04,7.9
3823.0,-4.98,-0.65,8.28
3836.0,-4.82,-0.77,9.48
3849.0,-5.46,-1.21,10.26
3862.0,-6.46,-1.48,10.03
3875.0,-7.01,-1.53,9.83
3888.0,-7.22,-1.53,9.91
3901.0,-7.22,-1.58,10.08
3914.0,-7.15,-1.68,10.44
3926.0,-7.25,-1.65,10.65
3939.0,-7.51,-1.47,10.38
3952.0,-7.67,-1.35,9.89
3965.0,-7.79,-1.35,9.78
3978.0,-7.77,-1.51,9.9
3991.0,-7.81,-1.66,10.09
4004.0,-7.63,-1.73,9.88
4017.0,-7.37,-1.7,9.75
4029.0,-6.63,-1.79,9.93
4042.0,-5.82,-1.79,10.38
4055.0,-5.16,-1.69,10.65
4068.0,-4.92,-1.56,10.16
4081.0,-4.67,-1.53,9.72
4094.0,-4.3,-1.41,9.05
4107.0,-3.98,-1.4,8.45
4120.0,-3.25,-1.52,8.24
4132.0,-2.45,-1.98,9.13
4145.0,-1.82,-2.43,9.68
4158.0,-1.06,-2.56,10.06
4171.0,-0.38,-2.44,10.2
4184.0,-0.22,-2.45,10.03
4197.0,-0.13,-2.87,10.1
4210.0,-0.02,-3.25,10.35
4223.0,0.49,-3.26,9.91
4235.0,0.83,-2.68,8.95
4248.0,1.29,-2.24,8.04
4261.0,2.05,-2.15,8.04
4274.0,3.2,-2.58,9.15
4287.0,4.28,-3.27,10.98
4300.0,5.07,-3.7,12.14
4313.0,5.44,-3.67,12.26
4325.0,5.63,-3.45,11.8
4338.0,5.97,-2.99,11.31
4351.0,6.56,-2.24,11.01
4364.0,7.08,-1.66,10.86
4377.0,7.6,-1.25,10.78
4390.0,8.01,-1.28,11.26
4403.0,8.36,-1.68,11.95
4415.0,8.32,-1.91,12.31
4428.0,7.89,-2.03,12.09
4441.0,7.4,-1.71,11.34
4454.0,7.01,-1.44,10.75
4467.0,6.67,-1.27,10.51
4480.0,6.24,-1.22,10.38
4493.0,5.94,-1.35,10.31
4505.0,5.35,-1.6,10.29
4518.0,4.95,-1.98,10.17
4531.0,4.4,-2.28,10.3
4544.0,3.62,-2.57,10.07
4557.0,2.6,-2.63,9.83
4570.0,1.78,-2.22,8.86
4583.0,1.59,-1.65,7.98
4595.0,1.74,-1.1,7.22
4608.0,1.7,-1.0,6.88
4621.0,2.24,-1.83,7.46
4634.0,2.65,-2.55,9.78
4647.0,2.19,-2.94,11.52
4660.0,0.53,-3.28,11.22
4673.0,-1.57,-3.39,9.97
4686.0,-3.16,-3.29,9.32
4698.0,-3.69,-3.01,9.29
4711.0,-3.53,-2.7,9.78
4724.0,-3.47,-2.37,10.24
4737.0,-3.7,-2.15,10.24
4750.0,-3.91,-2.0,10.02
4763.0,-4.24,-1.84,9.95
4776.0,-4.7,-1.59,9.63
4789.0,-5.32,-1.58,9.31
4801.0,-5.76,-1.68,9.2
4814.0,-5.8,-1.51,9.04
4827.0,-5.62,-1.19,9.12
4840.0,-5.21,-0.99,9.29
4853.0,-4.93,-0.83,9.67
4866.0,-5.04,-0.81,9.69
4879.0,-5.51,-1.17,9.77
4892.0,-6.11,-1.89,10.33
4904.0,-6.6,-2.44,10.79
4917.0,-7.18,-2.54,10.58
4930.0,-7.49,-2.26,9.63
4943.0,-7.55,-1.93,9.12
4956.0,-7.37,-1.59,8.63
4969.0,-7.04,-1.29,8.16
4982.0,-6.87,-1.02,8.0
4995.0,-6.77,-1.29,8.61
5007.0,-6.47,-1.97,9.48
5020.0,-5.87,-2.45,10.38
5033.0,-4.75,-2.66,11.06
5046.0,-3.68,-2.73,11.22
5059.0,-2.93,-2.39,10.48
5072.0,-2.69,-1.94,9.38
5085.0,-2.26,-1.9,9.0
5098.0,-1.34,-2.08,9.77
5110.0,-0.46,-2.17,10.41
5123.0,-0.43,-2.18,10.31
5136.0,-0.85,-2.25,9.44
5149.0,-0.94,-2.48,9.14
5162.0,-0.5,-2.7,10.02
5175.0,0.27,-3.03,10.96
5188.0,1.02,-3.05,11.37
5200.0,1.78,-2.4,10.78
5213.0,2.38,-1.55,9.69
5226.0,2.63,-1.17,8.94
5239.0,3.25,-1.39,9.53
5252.0,4.06,-1.76,10.85
5265.0,4.77,-2.08,11.63
5278.0,5.31,-2.03,11.52
5290.0,5.64,-1.81,10.99
5303.0,6.16,-1.65,10.69
5316.0,6.9,-1.67,10.9
5329.0,7.61,-1.71,11.17
5342.0,8.11,-1.87,11.53
5355.0,8.09,-1.96,11.31
5368.0,7.81,-2.09,11.08
5381.0,7.24,-2.32,10.99
5393.0,6.54,-2.42,10.78
5406.0,5.89,-2.25,10.38
5419.0,5.51,-1.95,9.87
5432.0,5.81,-1.78,9.86
5445.0,5.9,-1.59,9.98
5458.0,5.37,-1.6,9.66
5471.0,4.17,-1.73,9.05
5483.0,2.42,-2.26,8.6
5496.0,1.23,-2.65,7.9
5509.0,1.59,-2.57,7.49
5522.0,4.42,-2.65,9.08
5535.0,6.2,-1.98,11.27
5548.0,5.43,-1.59,11.32
5561.0,3.12,-1.55,9.14
5573.0,1.3,-1.98,8.1
5586.0,0.57,-2.64,9.2
5599.0,0.62,-2.97,11.05
5612.0,0.4,-3.15,12.01
5625.0,-0.25,-3.12,11.65
5638.0,-0.9,-2.77,10.92
5651.0,-1.44,-2.11,10.02
5663.0,-1.7,-1.39,9.13
5676.0,-1.71,-0.99,9.1
5689.0,-2.06,-1.13,9.7
5702.0,-2.86,-1.57,10.06
5715.0,-3.74,-1.98,10.17
5728.0,-4.4,-2.13,10.15
5741.0,-4.72,-2.05,10.08
5754.0,-4.73,-1.45,9.69
5766.0,-4.81,-0.71,9.1
5779.0,-5.12,-0.29,8.56
5792.0,-5.29,-0.18,8.61
5805.0,-5.42,-0.34,9.08
5818.0,-5.72,-0.79,9.9
5831.0,-6.02,-1.44,10.64
5844.0,-6.26,-1.88,11.02
5857.0,-6.25,-2.11,11.3
5869.0,-6.31,-2.16,11.38
5882.0,-6.59,-1.99,10.69
5895.0,-6.9,-1.75,10.01
5908.0,-6.91,-1.44,9.43
5921.0,-6.74,-1.21,9.31
5934.0,-6.33,-1.22,9.48
5947.0,-5.86,-1.31,10.05
5960.0,-5.42,-1.37,10.31
5972.0,-5.14,-1.33,10.35
5985.0,-4.77,-1.18,10.04
5998.0,-4.23,-0.71,9.34
6011.0,-3.99,-0.23,8.7
6024.0,-4.32,-0.16,7.85
6037.0,-4.68,-0.46,7.3
6050.0,-4.47,-0.73,7.48
6063.0,-3.94,-1.35,8.61
6075.0,-3.34,-2.08,10.0
6088.0,-2.81,-2.67,10.38
6101.0,-2.06,-2.9,10.19
6114.0,-1.19,-2.77,9.83
6127.0,-0.06,-2.34,9.65
6140.0,1.44,-1.98,10.27
6153.0,3.1,-1.66,11.29
6166.0,4.07,-1.73,12.17
6178.0,3.93,-1.93,12.05
6191.0,2.8,-2.32,11.02
6204.0,1.67,-2.86,9.94
6217.0,1.53,-3.29,9.64
6230.0,2.72,-3.08,9.95
6243.0,4.45,-2.39,10.08
6256.0,5.72,-1.77,9.83
6268.0,6.24,-1.57,9.57
6281.0,6.33,-1.69,9.68
6294.0,6.28,-2.07,9.97
6307.0,6.2,-2.67,10.55
6320.0,6.3,-3.24,11.09
6333.0,6.59,-3.63,11.67
6346.0,7.08,-3.63,11.99
6358.0,7.51,-3.35,12.07
6371.0,7.62,-3.05,11.83
6384.0,7.47,-2.85,11.6
6397.0,7.03,-2.66,11.45
6410.0,6.73,-2.6,11.32
6423.0,6.36,-2.54,11.33
6436.0,5.75,-2.51,11.09
6448.0,5.14,-2.36,10.51
6461.0,4.74,-2.21,10.02
6474.0,4.1,-2.11,9.68
6487.0,3.55,-2.21,8.95
6500.0,3.55,-2.28,9.22
6513.0,3.58,-2.2,9.87
6526.0,2.82,-2.33,9.78
6538.0,1.54,-2.47,8.87
6551.0,0.81,-2.32,8.26
6564.0,1.26,-2.14,8.58
6577.0,1.87,-1.81,9.3
6590.0,1.62,-1.62,9.41
6603.0,0.7,-1.61,9.23
6616.0,-0.38,-1.53,8.96
6628.0,-1.27,-1.4,8.91
6641.0,-2.01,-1.41,9.34
6654.0,-2.5,-1.53,9.83
6667.0,-3.02,-1.37,9.96
6680.0,-3.49,-1.13,9.78
6693.0,-3.75,-1.0,9.81
6706.0,-4.09,-1.08,10.07
6719.0,-4.55,-1.37,10.32
6731.0,-5.1,-1.74,10.53
6744.0,-5.53,-2.03,10.58
6757.0,-5.69,-1.95,10.44
6770.0,-5.86,-1.79,10.32
6783.0,-5.98,-1.48,9.94
6796.0,-5.97,-1.46,10.18
6809.0,-6.38,-1.93,10.95
6822.0,-7.57,-2.86,11.45
6834.0,-8.59,-3.52,11.06
6847.0,-8.74,-3.48,10.67
6860.0,-7.96,-3.02,10.62
6873.0,-6.86,-2.42,10.67
6886.0,-5.88,-1.88,10.77
6899.0,-5.36,-1.46,10.74
6912.0,-5.01,-1.27,10.44
6925.0,-4.93,-1.11,10.02
6937.0,-4.94,-1.18,9.35
6950.0,-4.86,-0.99,8.34
6963.0,-4.68,-0.74,7.64
6976.0,-4.08,-0.81,7.75
6989.0,-3.64,-1.03,8.38
7002.0,-3.11,-1.63,9.31
7015.0,-2.56,-2.03,9.79
7028.0,-2.05,-2.12,9.69
7040.0,-1.66,-2.22,9.43
7053.0,-0.66,-2.48,10.05
7066.0,0.0,-2.75,10.92
7079.0,0.01,-3.12,11.17
7092.0,-0.16,-3.35,10.82
7105.0,0.65,-3.3,10.85
7118.0,2.22,-2.61,11.02
7130.0,3.54,-1.7,10.59
7143.0,4.15,-0.77,9.47
7156.0,4.5,-0.39,8.32
7169.0,4.6,-0.76,8.28
7182.0,5.35,-1.72,9.71
7195.0,6.0,-2.58,11.32
7208.0,6.22,-3.15,11.68
7220.0,6.4,-3.34,11.61
7233.0,7.36,-3.35,11.58
7246.0,8.3,-3.07,11.86
7259.0,9.01,-2.94,12.09
7272.0,9.02,-2.93,12.05
7285.0,8.39,-3.22,11.91
7298.0,7.6,-3.42,11.74
7310.0,7.14,-3.26,11.45
7323.0,7.41,-2.69,11.28
7336.0,7.61,-1.81,10.79
7349.0,7.37,-1.0,9.88
7362.0,7.06,-0.79,9.39
7375.0,6.52,-0.99,9.4
7388.0,5.52,-1.39,9.48
7400.0,4.61,-1.65,9.37
7413.0,4.46,-1.87,9.41
7426.0,4.72,-2.06,9.9
7439.0,4.77,-2.46,10.66
7452.0,3.94,-2.69,10.69
7465.0,2.46,-3.03,10.26
7478.0,1.07,-3.23,9.42
7491.0,0.47,-3.11,9.22
7503.0,0.18,-2.76,9.09
7516.0,0.59,-2.23,8.66
7529.0,1.38,-2.14,9.47
7542.0,0.83,-2.23,10.03
7555.0,-0.86,-2.46,9.45
7568.0,-2.82,-2.85,8.76
7581.0,-4.33,-3.12,8.51
7593.0,-5.19,-2.8,8.26
7606.0,-5.08,-2.07,7.45
7619.0,-3.99,-1.77,8.34
7632.0,-3.39,-1.69,10.02
7645.0,-4.02,-1.98,10.88
7658.0,-5.64,-2.3,10.35
7671.0,-7.03,-2.34,9.27
7684.0,-7.53,-2.26,8.95
7696.0,-7.38,-1.84,8.83
7709.0,-6.53,-1.22,8.67
7722.0,-5.45,-0.87,9.64
7735.0,-4.7,-0.74,10.79
7748.0,-4.65,-0.84,11.21
7761.0,-5.17,-0.96,10.8
7774.0,-5.84,-0.97,10.16
7787.0,-6.51,-0.96,9.49
7799.0,-7.05,-1.07,9.11
7812.0,-7.12,-1.32,9.3
7825.0,-7.11,-1.5,9.72
7838.0,-7.1,-1.58,9.65
7851.0,-6.75,-1.56,9.48
7864.0,-6.23,-1.41,9.62
7877.0,-5.88,-1.35,9.53
7890.0,-5.69,-1.48,9.48
7902.0,-5.36,-1.54,9.31
7915.0,-4.85,-1.39,9.19
7928.0,-4.46,-1.23,9.11
7941.0,-4.16,-1.45,9.38
7954.0,-4.1,-1.77,9.69
7967.0,-3.77,-2.08,9.92
7980.0,-3.2,-1.97,10.01
7993.0,-2.3,-1.66,10.17
8005.0,-1.41,-1.24,9.88
8018.0,-0.46,-0.88,9.78
8031.0,0.35,-0.38,9.49
8044.0,0.99,-0.26,9.54
8057.0,0.99,-0.87,10.2
8070.0,0.61,-1.66,10.39
8083.0,0.24,-2.14,9.87
8095.0,0.36,-2.38,9.51
8108.0,0.88,-2.34,9.02
8121.0,2.18,-2.11,9.3
8134.0,4.36,-1.72,10.48
8147.0,5.98,-1.39,11.52
8160.0,6.5,-1.32,10.97
8173.0,6.22,-1.46,10.5
8185.0,5.49,-1.98,9.96
8198.0,5.28,-2.75,10.34
8211.0,5.82,-3.35,11.43
8224.0,6.65,-3.81,12.9
8237.0,6.94,-3.87,13.68
8250.0,7.71,-3.65,13.31
8263.0,8.04,-3.09,12.75
8275.0,7.57,-2.5,11.89
8288.0,6.57,-2.03,10.88
8301.0,5.92,-1.74,10.3
8314.0,5.86,-1.33,10.11
8327.0,6.26,-1.14,10.43
8340.0,5.94,-1.21,10.51
8353.0,5.09,-1.51,10.18
8366.0,4.16,-1.78,9.82
8378.0,3.54,-1.98,9.73
8391.0,3.45,-2.14,10.03
8404.0,3.34,-2.34,10.71
8417.0,2.89,-2.37,10.89
8430.0,2.17,-2.41,10.54
8443.0,1.3,-2.35,10.23
8456.0,0.68,-2.16,9.75
8468.0,0.76,-1.87,9.39
8481.0,1.44,-1.58,9.53
8494.0,1.92,-1.49,10.05
8507.0,1.2,-1.73,10.35
8520.0,-0.27,-2.18,9.96
8533.0,-1.64,-2.64,9.86
8546.0,-2.62,-2.79,9.8
8558.0,-3.46,-2.49,9.61
8571.0,-3.77,-2.08,9.25
8584.0,-3.7,-1.49,8.76
8597.0,-3.77,-0.99,8.68
8610.0,-3.85,-0.79,8.67
8623.0,-4.06,-0.64,8.89
8636.0,-4.71,-0.52,9.25
8649.0,-5.45,-0.71,9.05
8661.0,-6.25,-0.85,8.75
8674.0,-6.7,-0.98,8.58
8687.0,-6.55,-1.04,8.69
8700.0,-6.08,-1.09,9.35
8713.0,-6.14,-1.16,9.94
8726.0,-6.57,-1.13,9.58
8739.0,-7.02,-0.93,9.05
8752.0,-7.41,-0.91,8.78
8764.0,-7.57,-0.97,8.68
8777.0,-7.66,-0.96,8.58
8790.0,-7.61,-0.92,8.33
8803.0,-7.43,-0.77,8.12
8816.0,-7.19,-0.62,8.25
8829.0,-6.87,-0.6,8.49
8842.0,-6.61,-0.84,8.94
8855.0,-6.43,-1.11,9.26
8867.0,-6.26,-1.37,9.39
8880.0,-6.02,-1.31,9.19
8893.0,-5.2,-1.02,9.11
8906.0,-4.03,-0.81,9.69
8919.0,-3.51,-0.72,10.33
8932.0,-3.91,-1.16,10.45
8945.0,-4.56,-2.12,10.57
8958.0,-4.87,-3.09,10.63
8970.0,-4.39,-3.77,11.0
8983.0,-2.66,-3.8,12.03
8996.0,-0.38,-3.25,13.05
9009.0,1.5,-2.52,13.06
9022.0,1.92,-1.82,12.01
9035.0,1.18,-1.44,10.13
9048.0,0.07,-1.55,8.41
9060.0,-1.12,-2.09,7.67
9073.0,-0.99,-2.97,8.33
9086.0,0.35,-3.15,9.3
9099.0,2.56,-2.57,9.88
9112.0,4.25,-1.78,9.65
9125.0,4.84,-1.33,8.8
9138.0,4.53,-1.49,8.27
9151.0,4.47,-2.26,8.65
9163.0,5.02,-3.15,10.14
9176.0,5.82,-3.62,11.75
9189.0,6.73,-3.7,12.92
9202.0,7.75,-3.17,12.85
9215.0,8.44,-2.43,12.39
9228.0,8.57,-1.93,11.85
9241.0,8.07,-1.82,11.36
9253.0,7.45,-2.28,11.68
9266.0,6.94,-2.57,12.1
9279.0,6.27,-2.43,12.05
9292.0,5.72,-2.07,11.35
9305.0,5.61,-1.64,10.89
9318.0,5.51,-1.19,10.62
9331.0,5.19,-1.04,10.27
9343.0,4.59,-1.13,9.87
9356.0,3.8,-1.36,9.58
9369.0,3.06,-1.92,9.66
9382.0,3.45,-2.75,10.66
9395.0,3.5,-2.96,11.71
9408.0,2.85,-2.82,11.31
9421.0,1.6,-2.54,10.08
9433.0,0.84,-2.05,8.68
9446.0,0.39,-1.31,7.76
9459.0,0.84,-1.03,7.6
9472.0,1.86,-0.96,8.87
9485.0,1.99,-0.71,9.56
9498.0,1.0,-0.6,8.82
9511.0,-0.5,-0.63,7.63
9523.0,-1.53,-0.85,7.48
9536.0,-1.8,-1.0,8.38
9549.0,-1.7,-1.16,9.62
9562.0,-1.03,-1.31,10.51
9575.0,-2.0,-1.18,11.11
9588.0,-2.94,-1.2,10.57
9601.0,-4.12,-1.34,9.97
9614.0,-4.93,-1.43,9.8
9626.0,-4.96,-1.38,9.93
9639.0,-4.75,-1.3,10.34
9652.0,-4.49,-1.31,10.88
9665.0,-4.78,-1.31,10.95
9678.0,-5.44,-1.42,10.58
9691.0,-6.08,-1.51,10.15
9704.0,-6.43,-1.58,9.79
9717.0,-6.25,-1.52,9.63
9729.0,-5.95,-1.47,9.92
9742.0,-5.9,-1.5,9.99
9755.0,-6.2,-1.64,10.05
9768.0,-6.62,-1.91,9.97
9781.0,-7.18,-2.17,9.91
9794.0,-7.45,-2.29,9.7
9807.0,-7.44,-2.26,9.59
9820.0,-7.27,-2.18,9.54
9832.0,-6.78,-2.06,9.68
9845.0,-6.29,-1.9,9.95
9858.0,-5.83,-1.88,10.06
9871.0,-5.47,-1.88,10.21
9884.0,-4.88,-1.83,10.11
9897.0,-4.35,-1.66,10.06
9910.0,-3.84,-1.6,9.96
9923.0,-3.72,-1.63,9.93
9935.0,-3.59,-1.82,9.8
9948.0,-3.23,-1.98,9.82
9961.0,-2.48,-1.94,9.91
9974.0,-1.39,-1.71,10.45
9987.0,-0.18,-1.49,11.08
10000.0,0.84,-1.43,11.47
10013.0,0.82,-1.07,10.73
10026.0,0.52,-0.88,9.5
10038.0,0.53,-0.89,9.13
10051.0,1.41,-1.1,9.69
10064.0,2.54,-1.13,10.56
10077.0,3.39,-1.12,10.96
10090.0,3.43,-1.12,10.36
10103.0,3.11,-1.34,9.49
10116.0,2.86,-1.83,9.05
10128.0,2.86,-2.06,9.03
10141.0,3.62,-1.93,9.31
10154.0,4.92,-1.5,9.64
10167.0,6.04,-1.21,9.7
10180.0,6.4,-1.15,9.62
10193.0,6.63,-1.67,10.05
10206.0,6.89,-2.53,11.14
10218.0,6.99,-3.19,12.24
10231.0,7.02,-3.38,12.72
10244.0,7.07,-2.97,12.41
10257.0,6.72,-2.45,11.75
10270.0,6.23,-1.82,10.8
10283.0,5.9,-1.28,10.04
10296.0,5.81,-1.22,10.21
10308.0,5.48,-1.4,10.57
10321.0,4.84,-1.78,10.83
10334.0,4.2,-2.06,10.8
10347.0,3.73,-2.11,10.55
10360.0,3.23,-2.15,10.42
10373.0,2.56,-2.11,10.02
10386.0,2.53,-2.23,9.55
10398.0,3.22,-2.3,9.83
10411.0,3.78,-2.23,10.55
10424.0,3.53,-2.29,10.5
10437.0,2.4,-2.39,9.88
10450.0,1.13,-2.36,8.98
10463.0,0.2,-2.21,8.74
10476.0,-0.51,-2.16,8.82
10488.0,-0.9,-2.23,9.0
10501.0,-0.77,-2.49,9.77
10514.0,-0.61,-2.43,10.77
10527.0,-1.39,-2.18,10.83
10540.0,-2.73,-1.84,9.85
10553.0,-4.02,-1.61,9.26
10566.0,-4.81,-1.73,9.31
10579.0,-5.49,-1.65,9.62
10591.0,-5.58,-1.47,9.41
10604.0,-5.19,-1.51,9.99
10617.0,-4.71,-1.6,10.91
10630.0,-5.01,-1.59,11.08
10643.0,-5.95,-1.67,10.59
10656.0,-6.79,-1.72,10.16
10669.0,-7.27,-1.55,9.86
10682.0,-7.33,-1.22,9.37
10694.0,-6.88,-0.98,9.24
10707.0,-6.12,-0.85,9.79
10720.0,-5.92,-0.94,10.43
10733.0,-6.51,-1.11,10.25
10746.0,-7.18,-1.19,9.68
10759.0,-7.56,-1.14,9.32
10772.0,-7.59,-0.96,8.91
10785.0,-7.56,-0.85,8.52
10797.0,-7.49,-0.91,8.53
10810.0,-7.32,-1.05,8.66
10823.0,-7.24,-1.06,8.55
10836.0,-7.29,-1.13,8.23
10849.0,-7.1,-1.29,8.2
10862.0,-6.46,-1.37,8.25
10875.0,-5.44,-1.27,8.43
10888.0,-4.4,-1.1,8.82
10900.0,-3.65,-1.09,9.29
10913.0,-3.61,-1.2,9.69
10926.0,-3.59,-1.54,9.5
10939.0,-3.02,-1.74,9.7
10952.0,-2.05,-1.49,9.73
10965.0,-0.94,-1.04,9.82
10978.0,-0.15,-0.9,10.75
10991.0,0.39,-0.9,11.12
11003.0,0.54,-0.84,11.19
11016.0,0.59,-0.86,10.68
11029.0,0.47,-0.87,10.35
11042.0,0.17,-1.12,10.05
11055.0,0.05,-1.81,10.38
11068.0,0.44,-2.47,10.88
11081.0,1.42,-2.64,11.28
11093.0,2.5,-2.39,11.37
11106.0,3.25,-1.98,10.78
11119.0,3.19,-1.79,9.65
11132.0,3.15,-2.07,9.42
11145.0,3.85,-2.67,10.41
11158.0,4.85,-2.9,11.51
11171.0,6.19,-2.49,11.82
11183.0,7.54,-1.9,11.82
11196.0,8.62,-1.21,11.76
11209.0,8.55,-0.81,11.34
11222.0,7.84,-0.77,10.65
11235.0,7.16,-0.83,10.54
11248.0,6.76,-0.99,11.06
11261.0,6.32,-1.03,11.16
11273.0,5.88,-1.02,10.89
11286.0,5.57,-1.03,10.74
11299.0,5.49,-1.1,10.85
11312.0,5.26,-1.35,11.05
11325.0,4.68,-1.79,11.22
11338.0,3.94,-2.2,11.05
11351.0,3.67,-2.65,11.4
11363.0,3.2,-3.04,11.76
11376.0,2.45,-3.36,11.74
11389.0,1.61,-3.08,11.08
11402.0,1.27,-2.69,10.17
11415.0,1.82,-2.5,10.42
11428.0,2.05,-2.21,10.81
11441.0,1.49,-2.22,10.79
11453.0,0.4,-2.28,10.19
11466.0,-0.65,-2.13,9.35
11479.0,-1.41,-1.78,8.8
11492.0,-2.06,-1.32,8.09
11505.0,-2.57,-0.96,7.51
11518.0,-2.57,-0.8,7.63
11531.0,-2.15,-1.13,8.65
11544.0,-2.35,-1.76,10.26
11556.0,-3.47,-2.22,10.62
11569.0,-5.18,-2.38,9.64
11582.0,-6.43,-2.25,8.56
11595.0,-6.88,-1.91,8.12
11608.0,-6.49,-1.35,7.97
11621.0,-5.68,-1.05,8.67
11634.0,-5.34,-1.14,9.98
11647.0,-5.46,-1.44,10.62
11659.0,-6.14,-1.69,10.77
11672.0,-7.2,-1.87,10.21
11685.0,-8.26,-2.1,9.54
11698.0,-9.02,-2.31,9.22
11711.0,-9.23,-2.42,9.16
11724.0,-9.05,-2.35,9.23
11737.0,-8.48,-2.12,9.26
11750.0,-7.72,-1.81,9.14
11762.0,-7.27,-1.43,9.12
11775.0,-6.65,-1.22,8.9
11788.0,-6.1,-0.98,8.74
11801.0,-5.61,-0.95,8.94
11814.0,-5.3,-1.04,9.01
11827.0,-5.54,-1.3,8.92
11840.0,-5.68,-1.79,8.98
11853.0,-5.51,-1.89,8.82
11865.0,-5.29,-1.78,8.58
11878.0,-4.57,-1.74,8.39
11891.0,-3.95,-1.78,8.86
11904.0,-2.52,-2.01,9.52
11917.0,-1.16,-1.93,10.11
11930.0,-0.43,-1.73,10.48
11943.0,-0.27,-1.76,10.02
11956.0,-0.67,-1.9,9.22
11968.0,-1.08,-2.13,8.85
11981.0,-0.71,-2.66,9.44
11994.0,0.28,-3.1,10.84
12007.0,1.46,-3.2,11.82
12020.0,2.32,-2.8,11.57
12033.0,2.83,-1.99,10.3
12046.0,3.42,-1.06,8.84
12058.0,4.42,-0.58,8.47
12071.0,5.34,-0.67,9.3
12084.0,5.88,-1.39,10.78
12097.0,6.05,-2.32,12.04
12110.0,5.91,-2.83,12.37
12123.0,6.03,-2.89,12.06
12136.0,6.55,-2.4,11.54
12148.0,7.22,-2.02,11.57
12161.0,7.47,-2.11,11.49
12174.0,7.3,-2.7,11.99
12187.0,6.92,-3.2,12.22
12200.0,6.47,-3.44,11.87
12213.0,6.12,-3.16,11.27
12226.0,5.85,-2.62,10.72
12238.0,5.8,-2.0,9.97
12251.0,5.73,-1.37,9.59
12264.0,5.83,-1.16,9.38
12277.0,6.03,-1.08,9.63
12290.0,6.03,-1.03,9.96
12303.0,5.32,-1.22,9.81
12316.0,4.05,-1.56,9.35
12329.0,3.59,-2.32,9.55
12341.0,4.18,-3.04,10.74
12354.0,4.66,-3.22,12.14
12367.0,4.25,-2.96,12.23
12380.0,2.98,-2.48,11.16
12393.0,1.48,-2.21,9.98
12406.0,0.88,-2.11,9.48
12419.0,1.2,-2.15,9.89
12431.0,1.64,-2.36,10.78
12444.0,1.97,-2.38,11.19
12457.0,1.43,-1.97,10.88
12470.0,0.34,-1.67,9.89
12483.0,-0.7,-1.45,9.13
12496.0,-2.0,-1.41,8.54
12509.0,-2.88,-1.47,8.27
12521.0,-3.25,-1.55,8.38
12534.0,-2.86,-1.59,8.79
12547.0,-2.5,-1.69,9.52
12560.0,-2.47,-1.81,9.91
12573.0,-3.05,-1.62,9.9
12586.0,-3.88,-1.5,9.57
12599.0,-5.14,-1.78,9.37
12612.0,-6.36,-2.27,9.6
12624.0,-7.3,-2.65,9.98
12637.0,-7.46,-2.54,10.05
12650.0,-7.11,-1.96,9.88
12663.0,-6.55,-1.31,9.72
12676.0,-6.42,-0.84,9.65
12689.0,-6.48,-0.69,9.3
12702.0,-6.75,-0.84,9.26
12715.0,-7.14,-1.25,9.39
12727.0,-7.4,-1.64,9.42
12740.0,-7.38,-1.71,9.28
12753.0,-6.7,-1.49,9.06
12766.0,-5.7,-1.2,9.48
12779.0,-4.87,-0.94,9.91
12792.0,-4.51,-0.99,10.36
12805.0,-4.57,-1.42,10.88
12818.0,-4.76,-1.81,11.09
12830.0,-4.85,-2.01,10.79
12843.0,-4.78,-1.95,10.13
12856.0,-4.52,-1.88,9.63
