timestamp,accX,accY,accZ
2.0,4.28,-2.28,11.27
15.0,3.34,-2.04,9.22
28.0,3.83,-2.55,11.11
41.0,4.14,-2.56,11.52
54.0,4.51,-2.25,11.51
66.0,4.67,-1.78,10.9
79.0,4.61,-1.24,9.96
92.0,4.26,-0.83,9.21
105.0,3.79,-0.62,8.84
118.0,3.32,-0.64,8.85
131.0,3.08,-0.86,9.19
144.0,2.9,-1.11,9.61
157.0,2.68,-1.4,9.95
169.0,2.45,-1.63,10.19
182.0,2.15,-1.62,10.06
195.0,1.81,-1.42,9.58
208.0,1.44,-1.18,8.77
221.0,1.35,-1.35,8.82
234.0,1.59,-1.91,10.08
247.0,1.7,-2.46,11.38
259.0,1.04,-2.77,11.78
272.0,-0.09,-2.75,10.88
285.0,-1.06,-2.48,9.68
298.0,-1.37,-2.23,9.27
311.0,-1.2,-2.05,9.32
324.0,-1.15,-2.04,9.42
337.0,-1.34,-2.04,9.31
349.0,-1.65,-2.15,9.37
362.0,-1.73,-2.53,10.0
375.0,-1.89,-2.75,10.34
388.0,-2.76,-2.93,10.25
401.0,-3.08,-2.69,9.42
414.0,-3.4,-2.24,8.68
427.0,-3.51,-1.94,8.2
440.0,-3.58,-1.9,8.31
452.0,-3.92,-2.06,8.54
465.0,-4.48,-2.24,8.67
478.0,-4.97,-2.22,8.54
491.0,-5.24,-1.96,8.32
504.0,-5.3,-1.7,8.14
517.0,-5.27,-1.57,8.16
530.0,-5.3,-1.58,8.42
543.0,-5.36,-1.73,8.65
555.0,-5.5,-1.92,8.96
568.0,-5.69,-2.07,9.15
581.0,-5.8,-2.07,9.0
594.0,-5.76,-2.0,9.13
607.0,-5.56,-2.02,9.41
620.0,-5.28,-2.04,9.65
633.0,-5.17,-2.07,10.03
646.0,-4.91,-2.04,10.45
658.0,-4.32,-2.01,10.94
671.0,-3.56,-1.96,11.47
684.0,-3.05,-1.87,11.62
697.0,-3.01,-1.67,11.08
710.0,-3.38,-1.52,10.33
723.0,-3.85,-1.59,9.81
736.0,-4.24,-1.82,9.68
749.0,-4.23,-2.01,9.71
761.0,-3.93,-2.16,9.97
774.0,-3.44,-2.13,9.99
787.0,-2.81,-1.95,9.84
800.0,-2.3,-1.67,9.48
813.0,-2.1,-1.53,8.97
826.0,-2.09,-1.58,8.69
839.0,-1.65,-1.86,8.72
852.0,-0.88,-2.13,9.18
864.0,-0.15,-2.46,9.99
877.0,0.31,-2.93,10.84
890.0,0.62,-3.08,11.18
903.0,0.7,-2.87,10.56
916.0,0.56,-2.64,9.53
929.0,0.33,-2.43,8.75
942.0,0.77,-2.37,8.66
954.0,1.69,-2.21,8.87
967.0,2.63,-1.97,9.28
980.0,2.97,-1.83,9.5
993.0,2.65,-2.18,9.62
1006.0,2.46,-2.5,9.85
1019.0,2.83,-2.64,10.21
1032.0,3.62,-2.49,10.27
1044.0,4.44,-2.2,10.25
1057.0,5.04,-2.21,10.68
1070.0,5.47,-2.39,11.03
1083.0,5.83,-2.54,11.26
1096.0,5.86,-2.46,10.97
1109.0,5.41,-2.36,10.38
1122.0,4.81,-2.28,9.87
1134.0,4.38,-2.15,9.65
1147.0,4.23,-1.96,9.55
1160.0,4.31,-1.7,9.42
1173.0,4.53,-1.41,9.2
1186.0,4.48,-1.32,9.05
1199.0,4.15,-1.56,9.19
1212.0,3.83,-2.04,9.72
1224.0,3.62,-2.51,10.5
1237.0,3.17,-2.91,10.85
1250.0,2.75,-3.24,10.85
1263.0,2.55,-3.47,10.64
1276.0,2.44,-3.38,10.39
1289.0,2.29,-3.02,10.23
1302.0,2.15,-2.76,10.21
1314.0,2.12,-2.71,10.24
1327.0,1.99,-2.89,10.42
1340.0,1.71,-3.12,10.42
1353.0,1.25,-3.52,10.7
1366.0,0.59,-3.71,10.89
1379.0,-0.07,-3.42,10.61
1392.0,-0.25,-3.03,10.42
1405.0,-0.22,-2.72,10.47
1417.0,-0.15,-2.47,10.6
1430.0,-0.4,-2.41,10.82
1443.0,-1.03,-2.5,10.93
1456.0,-2.08,-2.59,10.56
1469.0,-3.04,-2.44,9.82
1482.0,-3.68,-2.07,9.03
1495.0,-3.96,-1.68,8.7
1508.0,-4.08,-1.59,9.01
1520.0,-4.23,-1.61,9.45
1533.0,-4.44,-1.51,9.4
1546.0,-4.68,-1.24,9.09
1559.0,-4.81,-0.89,8.67
1572.0,-4.81,-0.57,8.29
1585.0,-4.72,-0.32,8.11
1598.0,-4.43,-0.08,8.22
1611.0,-4.22,-0.06,8.53
1623.0,-4.28,-0.32,8.93
1636.0,-4.5,-0.6,9.26
1649.0,-4.87,-0.9,9.47
1662.0,-5.21,-1.18,9.6
1675.0,-5.29,-1.3,9.67
1688.0,-5.17,-1.37,9.84
1701.0,-4.76,-1.41,9.95
1714.0,-4.19,-1.33,10.28
1726.0,-3.64,-1.22,10.39
1739.0,-3.19,-1.15,10.5
1752.0,-2.98,-1.19,10.66
1765.0,-2.96,-1.31,10.72
1778.0,-2.98,-1.42,10.56
1791.0,-2.96,-1.48,10.27
1804.0,-3.05,-1.6,10.04
1817.0,-2.97,-1.87,10.04
1829.0,-2.53,-2.03,10.3
1842.0,-1.94,-2.14,10.53
1855.0,-1.41,-2.25,10.74
1868.0,-1.12,-2.5,10.92
1881.0,-1.17,-2.75,10.89
1894.0,-1.44,-3.11,10.7
1907.0,-1.64,-3.41,10.54
1920.0,-1.2,-3.4,10.49
1932.0,-0.07,-3.08,10.47
1945.0,1.6,-2.5,10.35
1958.0,3.26,-1.72,10.11
1971.0,4.45,-1.03,9.75
1984.0,5.02,-0.8,9.5
1997.0,4.86,-0.92,9.58
2010.0,3.94,-1.35,9.35
2022.0,3.09,-1.99,9.32
2035.0,2.5,-2.47,9.37
2048.0,2.71,-2.59,9.55
2061.0,3.66,-2.51,9.91
2074.0,4.86,-2.26,10.08
2087.0,5.88,-1.92,10.18
2100.0,6.44,-1.66,9.92
2112.0,6.76,-1.55,9.83
2125.0,7.05,-1.67,10.11
2138.0,7.22,-1.86,10.59
2151.0,7.18,-2.12,11.0
2164.0,6.99,-2.18,10.75
2177.0,6.53,-1.94,10.03
2190.0,5.87,-1.79,9.42
2202.0,5.22,-1.74,9.08
2215.0,4.95,-1.72,9.16
2228.0,5.15,-1.67,9.51
2241.0,5.31,-1.62,9.84
2254.0,5.23,-1.54,9.66
2267.0,4.91,-1.47,9.37
2280.0,4.72,-1.6,9.37
2292.0,4.47,-1.82,9.53
2305.0,4.12,-2.12,9.65
2318.0,3.81,-2.52,9.86
2331.0,3.48,-2.74,9.95
2344.0,3.22,-2.82,10.14
2357.0,2.72,-2.95,10.27
2370.0,2.01,-3.09,10.24
2382.0,1.48,-3.08,10.1
2395.0,0.98,-3.06,9.81
2408.0,0.44,-3.05,9.66
2421.0,-0.31,-3.14,9.56
2434.0,-0.72,-3.38,9.96
2447.0,-0.81,-3.51,10.62
2460.0,-0.76,-3.48,11.05
2473.0,-1.05,-3.34,10.98
2485.0,-1.71,-3.17,10.3
2498.0,-1.85,-2.81,9.92
2511.0,-1.54,-2.32,10.17
2524.0,-1.43,-1.82,10.03
2537.0,-1.46,-1.65,10.34
2550.0,-2.0,-1.85,10.67
2563.0,-2.88,-2.11,10.58
2576.0,-3.81,-2.0,10.05
2588.0,-4.31,-1.57,9.32
2601.0,-4.26,-1.2,9.14
2614.0,-3.97,-1.08,9.56
2627.0,-4.1,-1.02,9.7
2640.0,-4.7,-1.05,9.36
2653.0,-5.24,-1.04,8.79
2666.0,-5.39,-1.0,8.8
2679.0,-5.31,-1.0,9.1
2691.0,-5.2,-1.0,9.4
2704.0,-5.23,-0.99,9.33
2717.0,-5.35,-0.94,9.12
2730.0,-5.37,-0.82,8.84
2743.0,-5.25,-0.78,8.8
2756.0,-5.05,-0.85,8.92
2769.0,-4.81,-0.96,9.25
2782.0,-4.59,-1.08,9.41
2794.0,-4.37,-1.12,9.4
2807.0,-4.21,-1.1,9.37
2820.0,-3.98,-1.12,9.33
2833.0,-3.69,-1.13,9.57
2846.0,-3.3,-1.12,9.78
2859.0,-2.94,-1.09,10.02
2872.0,-2.78,-1.04,9.87
2885.0,-2.87,-0.99,9.31
2897.0,-3.01,-1.06,8.77
2910.0,-2.88,-1.36,8.98
2923.0,-2.65,-1.86,9.92
2936.0,-2.49,-2.23,10.29
2949.0,-2.48,-2.38,10.16
2962.0,-2.68,-2.36,9.72
2975.0,-3.08,-2.33,9.11
2988.0,-3.33,-2.48,8.93
3000.0,-3.18,-2.62,9.14
3013.0,-2.57,-2.68,9.57
3026.0,-1.92,-2.79,9.89
3039.0,-1.46,-3.03,10.21
3052.0,-1.08,-3.14,10.13
3065.0,-0.86,-3.02,9.71
3078.0,-0.38,-2.91,9.34
3091.0,0.41,-2.75,9.48
3103.0,1.36,-2.55,9.65
3116.0,2.28,-2.49,9.98
3129.0,3.1,-2.49,10.26
3142.0,3.56,-2.55,10.51
3155.0,3.94,-2.77,10.92
3168.0,4.35,-2.83,11.17
3181.0,4.84,-2.9,11.22
3193.0,5.2,-3.14,11.76
3206.0,5.21,-3.4,12.04
3219.0,4.83,-3.6,11.91
3232.0,4.58,-3.56,11.77
3245.0,4.62,-3.26,11.36
3258.0,4.78,-2.89,10.97
3271.0,4.83,-2.57,10.58
3283.0,5.0,-2.23,10.41
3296.0,5.11,-1.89,10.28
3309.0,5.11,-1.58,9.94
3322.0,4.98,-1.29,9.58
3335.0,4.44,-1.36,9.42
3348.0,3.65,-1.85,9.77
3361.0,3.08,-2.28,9.97
3373.0,2.7,-2.43,9.89
3386.0,2.78,-2.57,9.88
3399.0,3.23,-2.87,10.68
3412.0,3.36,-3.25,11.42
3425.0,3.11,-3.47,11.27
3438.0,2.55,-3.37,10.63
3451.0,1.97,-3.16,9.97
3463.0,1.25,-3.1,9.69
3476.0,0.59,-2.97,9.25
3489.0,0.13,-2.77,8.95
3502.0,-0.27,-2.83,9.03
3515.0,-0.38,-3.13,9.86
3528.0,-0.4,-3.4,10.81
3541.0,-0.46,-3.34,11.01
3553.0,-0.7,-3.0,10.64
3566.0,-1.16,-2.61,9.9
3579.0,-1.78,-2.34,9.43
3592.0,-2.2,-2.19,9.36
3605.0,-2.31,-2.17,9.71
3618.0,-2.38,-2.2,10.05
3631.0,-2.41,-2.11,10.18
3644.0,-2.49,-1.98,10.22
3656.0,-2.74,-1.93,10.33
3669.0,-3.1,-1.93,10.35
3682.0,-3.78,-1.93,10.22
3695.0,-4.72,-1.87,9.66
3708.0,-5.57,-1.65,8.83
3721.0,-6.05,-1.32,8.09
3734.0,-5.98,-1.11,8.09
3747.0,-5.67,-1.0,8.56
3759.0,-5.53,-1.01,8.83
3772.0,-5.65,-1.0,8.65
3785.0,-5.8,-0.91,8.29
3798.0,-5.78,-0.81,7.86
3811.0,-5.58,-0.82,7.88
3824.0,-5.18,-0.99,8.4
3837.0,-4.92,-1.22,8.95
3850.0,-4.82,-1.31,9.03
3862.0,-4.69,-1.35,8.92
3875.0,-4.35,-1.47,9.21
3888.0,-3.99,-1.53,9.52
3901.0,-3.85,-1.65,9.67
3914.0,-3.85,-1.83,9.76
3927.0,-3.85,-2.06,9.87
3940.0,-3.79,-2.26,9.94
3953.0,-3.74,-2.36,9.93
3965.0,-3.79,-2.46,9.71
3978.0,-3.76,-2.64,9.68
3991.0,-3.5,-2.84,9.91
4004.0,-3.11,-2.83,9.91
4017.0,-2.55,-2.64,9.76
4030.0,-2.05,-2.39,9.51
4043.0,-1.69,-2.33,9.34
4056.0,-1.18,-2.41,9.68
4068.0,-0.6,-2.52,10.23
4081.0,-0.15,-2.52,10.14
4094.0,0.08,-2.53,9.52
4107.0,0.14,-2.65,9.27
4120.0,0.21,-3.0,9.47
4133.0,0.33,-3.43,10.04
4146.0,0.62,-3.84,10.84
4158.0,0.98,-3.96,11.23
4171.0,1.46,-3.76,11.23
4184.0,1.99,-3.31,10.83
4197.0,2.63,-2.65,10.04
4210.0,3.4,-1.98,9.07
4223.0,4.03,-1.76,9.33
4236.0,4.41,-1.97,10.07
4248.0,4.59,-2.18,10.5
4261.0,4.84,-2.36,10.93
4274.0,5.07,-2.46,11.06
4287.0,5.18,-2.46,10.81
4300.0,5.3,-2.39,10.65
4313.0,5.27,-2.38,10.54
4326.0,5.1,-2.46,10.4
4338.0,4.69,-2.64,10.37
4351.0,4.29,-2.76,10.3
4364.0,3.85,-2.68,10.02
4377.0,3.55,-2.38,9.41
4390.0,3.47,-1.98,8.95
4403.0,3.48,-1.81,8.95
4416.0,3.41,-1.89,9.15
4428.0,3.43,-2.17,9.46
4441.0,3.41,-2.48,9.66
4454.0,3.55,-2.57,9.68
4467.0,3.49,-2.57,9.84
4480.0,2.99,-2.56,9.67
4493.0,2.52,-2.63,9.58
4506.0,2.16,-2.83,9.69
4518.0,1.94,-3.1,10.06
4531.0,1.94,-3.19,10.07
4544.0,2.36,-3.08,10.09
4557.0,2.61,-2.89,10.37
4570.0,2.54,-2.77,10.39
4583.0,2.16,-2.63,10.23
4596.0,1.4,-2.63,9.96
4608.0,0.49,-2.79,9.82
4621.0,-0.49,-3.04,9.9
4634.0,-1.33,-3.31,10.1
4647.0,-1.77,-3.52,10.6
4660.0,-1.76,-3.58,11.13
4673.0,-1.32,-3.4,11.61
4686.0,-1.14,-2.95,11.38
4699.0,-1.38,-2.38,10.45
4711.0,-1.84,-2.08,9.86
4724.0,-2.37,-2.04,9.71
4737.0,-3.08,-2.14,9.79
4750.0,-3.66,-2.2,9.79
4763.0,-4.05,-2.06,9.66
4776.0,-4.27,-1.83,9.5
4789.0,-4.3,-1.63,9.46
4802.0,-4.36,-1.38,9.44
4814.0,-4.52,-1.17,9.21
4827.0,-4.73,-1.02,9.03
4840.0,-5.13,-0.93,8.81
4853.0,-5.39,-0.85,8.59
4866.0,-5.44,-0.68,8.5
4879.0,-5.38,-0.57,8.56
4892.0,-5.19,-0.46,8.67
4905.0,-5.07,-0.45,8.8
4917.0,-5.08,-0.4,8.67
4930.0,-4.97,-0.43,8.67
4943.0,-5.0,-0.66,9.05
4956.0,-5.0,-0.87,9.25
4969.0,-5.02,-0.99,9.38
4982.0,-5.03,-1.09,9.29
4995.0,-4.99,-1.22,9.2
5008.0,-4.81,-1.25,9.15
5020.0,-4.35,-1.22,9.24
5033.0,-3.87,-1.2,9.43
5046.0,-3.5,-1.14,9.56
5059.0,-3.19,-1.13,9.54
5072.0,-2.99,-1.15,9.39
5085.0,-2.82,-1.17,8.98
5098.0,-2.48,-1.24,8.87
5111.0,-1.95,-1.34,9.19
5123.0,-1.59,-1.45,9.48
5136.0,-1.48,-1.75,9.75
5149.0,-1.36,-2.15,10.1
5162.0,-1.19,-2.34,10.29
5175.0,-0.93,-2.28,10.23
5188.0,-0.73,-2.08,9.78
5201.0,-0.33,-1.85,9.36
5214.0,0.33,-1.63,9.21
5226.0,0.84,-1.57,9.46
5239.0,1.09,-1.9,10.06
5252.0,1.24,-2.25,10.49
5265.0,1.34,-2.7,10.86
5278.0,1.48,-2.89,11.03
5291.0,1.58,-2.92,10.87
5304.0,1.56,-2.93,10.47
5316.0,1.87,-2.87,10.12
5329.0,2.73,-2.88,10.57
5342.0,3.5,-2.9,11.04
5355.0,4.2,-2.85,11.26
5368.0,4.52,-2.61,11.12
5381.0,4.52,-2.32,10.57
5394.0,4.57,-2.2,10.26
5406.0,4.8,-2.29,10.41
5419.0,5.11,-2.43,10.76
5432.0,5.23,-2.49,10.85
5445.0,4.94,-2.41,10.57
5458.0,4.41,-2.34,10.22
5471.0,4.23,-2.29,10.3
5484.0,4.5,-2.18,10.44
5496.0,4.95,-1.95,10.45
5509.0,4.97,-1.61,10.01
5522.0,4.65,-1.37,9.13
5535.0,4.53,-1.35,8.85
5548.0,4.42,-1.63,9.31
5561.0,4.1,-2.18,9.79
5574.0,3.52,-2.88,10.38
5586.0,3.33,-3.42,10.98
5599.0,3.41,-3.61,11.43
5612.0,3.17,-3.48,11.16
5625.0,2.12,-3.31,10.34
5638.0,1.13,-3.29,9.53
5651.0,0.82,-3.19,9.47
5664.0,1.14,-3.03,9.98
5676.0,1.4,-2.85,10.62
5689.0,1.19,-2.9,10.77
5702.0,0.49,-3.02,10.82
5715.0,-0.79,-3.23,10.33
5728.0,-1.94,-3.32,9.85
5741.0,-2.63,-3.22,9.61
5754.0,-2.99,-3.02,9.72
5767.0,-3.2,-2.79,9.75
5779.0,-3.34,-2.63,9.92
5792.0,-3.71,-2.47,9.98
5805.0,-4.22,-2.32,9.57
5818.0,-4.83,-2.15,9.29
5831.0,-5.37,-1.98,9.01
5844.0,-5.79,-1.72,8.7
5857.0,-5.96,-1.3,8.31
5870.0,-5.77,-0.94,8.3
5882.0,-5.57,-0.66,8.38
5895.0,-5.42,-0.38,8.16
5908.0,-5.23,-0.14,8.0
5921.0,-5.07,-0.02,8.0
5934.0,-4.95,-0.13,8.33
5947.0,-5.02,-0.44,8.88
5960.0,-5.43,-0.76,8.91
5972.0,-5.74,-0.92,8.82
5985.0,-5.8,-0.97,8.71
5998.0,-5.7,-1.02,8.84
6011.0,-5.5,-1.05,9.09
6024.0,-5.33,-1.13,9.36
6037.0,-5.13,-1.27,9.71
6050.0,-4.96,-1.37,9.89
6063.0,-4.8,-1.24,9.58
6075.0,-4.25,-1.01,9.38
6088.0,-3.41,-0.78,9.59
6101.0,-2.53,-0.66,10.14
6114.0,-1.97,-0.67,10.76
6127.0,-2.19,-0.78,10.68
6140.0,-3.09,-1.02,10.1
6153.0,-3.88,-1.41,9.43
6166.0,-4.05,-1.66,9.17
6178.0,-3.74,-1.7,9.09
6191.0,-2.99,-1.51,8.91
6204.0,-2.35,-1.28,9.05
6217.0,-1.86,-1.35,9.71
6230.0,-1.89,-1.65,10.06
6243.0,-1.92,-1.99,10.03
6256.0,-1.55,-2.11,9.97
6269.0,-0.98,-1.97,9.76
6281.0,-0.53,-1.72,9.36
6294.0,-0.23,-1.64,9.14
6307.0,0.09,-1.85,9.51
6320.0,0.43,-2.42,10.54
6333.0,0.47,-3.14,11.53
6346.0,0.59,-3.63,11.97
6359.0,0.77,-3.68,11.72
6372.0,1.17,-3.31,11.14
6384.0,1.92,-2.78,10.34
6397.0,2.95,-2.16,10.16
6410.0,4.3,-1.62,10.17
6423.0,5.38,-1.29,10.48
6436.0,6.3,-1.15,10.69
6449.0,6.59,-1.15,11.0
6462.0,6.16,-1.29,11.21
6474.0,6.03,-1.53,11.35
6487.0,6.03,-1.8,11.39
6500.0,6.01,-1.83,11.08
6513.0,5.67,-1.81,10.56
6526.0,5.05,-1.78,10.14
6539.0,4.49,-1.87,9.93
6552.0,4.09,-2.03,9.8
6564.0,3.92,-2.25,10.16
6577.0,3.52,-2.38,10.09
6590.0,3.08,-2.37,9.59
6603.0,2.83,-2.31,9.31
6616.0,2.48,-2.36,9.31
6629.0,1.81,-2.47,9.32
6642.0,1.55,-2.65,9.57
6654.0,1.23,-2.79,9.95
6667.0,0.92,-2.91,10.1
6680.0,0.6,-3.02,10.02
6693.0,0.66,-3.01,10.19
6706.0,0.75,-2.96,10.36
6719.0,0.92,-2.98,10.36
6732.0,0.65,-2.92,10.45
6744.0,-0.04,-2.75,10.28
6757.0,-0.58,-2.49,10.03
6770.0,-0.96,-2.28,10.03
6783.0,-1.23,-2.09,10.04
6796.0,-1.51,-2.06,9.96
6809.0,-1.92,-2.26,10.24
6822.0,-2.38,-2.7,10.67
6834.0,-2.66,-3.15,11.27
6847.0,-2.99,-3.38,11.6
6860.0,-3.44,-3.4,11.38
6873.0,-3.87,-3.3,10.91
6886.0,-4.13,-2.95,10.3
6899.0,-4.33,-2.56,9.7
6912.0,-4.46,-2.18,9.16
6925.0,-4.4,-1.77,8.9
6937.0,-4.12,-1.35,8.69
6950.0,-4.07,-1.15,8.94
6963.0,-4.4,-1.25,9.11
6976.0,-4.87,-1.39,9.01
6989.0,-5.21,-1.27,8.67
7002.0,-5.26,-1.0,8.32
7015.0,-5.14,-0.86,8.4
7028.0,-5.04,-0.83,8.53
7040.0,-4.99,-0.84,8.57
7053.0,-4.95,-0.87,8.7
7066.0,-4.83,-0.91,8.78
7079.0,-4.7,-0.88,8.79
7092.0,-4.67,-0.99,8.88
7105.0,-4.73,-1.06,8.87
7118.0,-4.64,-1.1,8.82
7131.0,-4.49,-1.03,8.81
7143.0,-4.09,-0.96,8.86
7156.0,-3.71,-0.92,9.1
7169.0,-3.24,-0.83,9.05
7182.0,-2.91,-0.73,8.87
7195.0,-2.79,-0.82,8.86
7208.0,-2.95,-1.15,9.06
7221.0,-3.05,-1.69,9.56
7234.0,-2.85,-2.03,10.07
7246.0,-2.66,-2.22,10.27
7259.0,-2.34,-2.44,10.52
7272.0,-1.92,-2.7,10.89
7285.0,-1.4,-2.75,11.17
7298.0,-0.77,-2.57,11.24
7311.0,-0.22,-2.28,11.26
7324.0,0.18,-1.87,10.68
7337.0,0.25,-1.69,10.06
7349.0,0.17,-1.8,9.84
7362.0,0.01,-2.16,9.69
7375.0,0.07,-2.51,9.8
7388.0,0.82,-2.65,10.13
7401.0,1.35,-2.68,10.69
7414.0,1.4,-2.77,10.71
7427.0,1.18,-2.85,10.28
7439.0,1.02,-2.85,9.63
7452.0,1.16,-2.82,9.25
7465.0,1.93,-2.8,9.45
7478.0,3.19,-2.87,10.31
7491.0,4.35,-2.95,11.26
7504.0,5.03,-3.0,11.74
7517.0,5.34,-2.93,11.65
7529.0,5.49,-2.73,11.44
7542.0,5.68,-2.57,11.31
7555.0,6.03,-2.4,11.29
7568.0,6.24,-2.34,11.25
7581.0,6.18,-2.3,11.08
7594.0,5.87,-2.15,10.61
7607.0,5.49,-1.92,10.08
7619.0,5.21,-1.78,9.81
7632.0,4.88,-1.7,9.68
7645.0,4.48,-1.75,9.63
7658.0,4.01,-1.93,9.72
7671.0,3.6,-2.07,9.76
7684.0,3.25,-2.07,9.58
7697.0,2.91,-1.93,9.15
7709.0,2.38,-1.92,9.12
7722.0,1.96,-2.13,9.1
7735.0,1.72,-2.33,9.43
7748.0,1.46,-2.42,9.69
7761.0,0.79,-2.46,9.6
7774.0,0.17,-2.55,9.57
7787.0,-0.16,-2.63,9.63
7799.0,-0.01,-2.66,9.91
7812.0,0.35,-2.58,10.41
7825.0,0.31,-2.52,10.8
7838.0,-0.19,-2.38,10.58
7851.0,-0.87,-2.11,10.04
7864.0,-1.4,-1.86,9.6
7877.0,-1.58,-1.88,9.72
7890.0,-1.58,-1.98,10.35
7902.0,-1.75,-2.09,10.59
7915.0,-1.92,-2.06,10.64
7928.0,-2.24,-1.88,10.36
7941.0,-2.85,-1.74,9.92
7954.0,-3.58,-1.65,9.55
7967.0,-4.18,-1.52,9.38
7980.0,-4.53,-1.27,9.34
7993.0,-4.68,-0.82,8.93
8005.0,-4.69,-0.4,8.5
8018.0,-4.51,0.06,8.14
8031.0,-5.05,0.02,8.73
8044.0,-4.97,-0.15,8.87
8057.0,-5.15,-0.17,8.89
8070.0,-5.3,-0.26,8.89
8083.0,-5.39,-0.38,9.19
8095.0,-5.41,-0.43,9.14
8108.0,-5.42,-0.4,9.05
8121.0,-5.33,-0.37,9.05
8134.0,-5.26,-0.44,9.25
8147.0,-5.29,-0.5,9.12
8160.0,-5.36,-0.56,8.91
8173.0,-5.38,-0.63,8.87
8186.0,-5.27,-0.71,8.96
8198.0,-5.01,-0.95,9.24
8211.0,-4.8,-1.11,9.45
8224.0,-4.68,-1.16,9.33
8237.0,-4.51,-1.2,9.2
8250.0,-4.32,-1.24,9.28
8263.0,-4.22,-1.31,9.25
8276.0,-4.01,-1.51,9.4
8289.0,-3.89,-1.79,9.7
8301.0,-3.61,-2.16,10.21
8314.0,-3.36,-2.26,10.56
8327.0,-3.2,-2.2,10.47
8340.0,-3.13,-2.04,10.07
8353.0,-2.87,-2.01,9.96
8366.0,-2.34,-2.11,10.37
8379.0,-1.65,-2.26,10.99
8392.0,-0.99,-2.19,11.24
8404.0,-0.72,-2.06,10.98
8417.0,-0.49,-1.69,10.42
8430.0,-0.07,-1.28,9.99
8443.0,0.57,-1.12,9.96
8456.0,0.85,-1.3,10.15
8469.0,0.86,-1.76,10.31
8482.0,1.03,-2.16,10.73
8495.0,1.43,-2.31,11.15
8507.0,1.98,-2.15,11.23
8520.0,2.41,-1.84,10.98
8533.0,2.73,-1.55,10.42
8546.0,2.91,-1.36,9.83
8559.0,3.26,-1.33,9.6
8572.0,3.78,-1.29,9.49
8585.0,4.21,-1.26,9.4
8597.0,4.47,-1.44,9.65
8610.0,4.62,-1.81,10.25
8623.0,4.68,-2.22,10.81
8636.0,4.97,-2.4,11.04
8649.0,5.54,-2.21,10.98
8662.0,5.93,-1.88,10.69
8675.0,6.03,-1.43,9.94
8687.0,5.74,-1.16,9.3
8700.0,5.1,-1.05,9.0
8713.0,4.65,-0.98,8.85
8726.0,4.4,-0.95,8.92
8739.0,4.55,-1.04,9.27
8752.0,4.55,-1.05,9.73
8765.0,4.21,-1.19,9.85
8777.0,3.69,-1.21,9.71
8790.0,3.08,-1.29,9.39
8803.0,2.55,-1.45,9.47
8816.0,2.07,-1.84,9.84
8829.0,2.2,-2.33,10.55
8842.0,2.63,-2.61,11.27
8855.0,2.62,-2.76,11.15
8867.0,1.97,-2.89,10.98
8880.0,0.94,-2.97,10.38
8893.0,0.39,-2.87,9.92
8906.0,0.43,-2.55,9.91
8919.0,0.48,-1.93,9.4
8932.0,0.06,-1.46,9.12
8945.0,-0.48,-1.3,8.99
8957.0,-0.75,-1.41,9.4
8970.0,-0.98,-1.63,9.92
8983.0,-1.27,-1.92,10.47
8996.0,-1.88,-2.07,10.57
9009.0,-2.5,-2.18,10.31
9022.0,-2.88,-2.14,10.32
9035.0,-3.17,-1.99,10.4
9048.0,-3.31,-1.8,10.27
9060.0,-3.24,-1.61,10.17
9073.0,-3.2,-1.44,10.3
9086.0,-3.31,-1.33,10.29
9099.0,-3.48,-1.11,10.0
9112.0,-3.63,-0.88,9.6
9125.0,-3.87,-0.74,9.45
9138.0,-4.21,-0.69,9.28
9151.0,-4.77,-0.73,9.06
9163.0,-5.19,-0.79,9.01
9176.0,-5.52,-0.98,9.11
9189.0,-5.48,-1.02,9.15
9202.0,-5.22,-0.87,9.27
9215.0,-4.9,-0.68,9.24
9228.0,-4.69,-0.58,9.29
9241.0,-4.58,-0.64,9.39
9254.0,-4.63,-0.66,9.49
9266.0,-4.7,-0.68,9.32
9279.0,-4.74,-0.59,9.02
9292.0,-4.65,-0.51,8.76
9305.0,-4.24,-0.49,8.85
9318.0,-3.73,-0.48,9.2
9331.0,-3.4,-0.43,9.25
9344.0,-3.29,-0.54,9.39
9357.0,-3.61,-0.77,9.21
9369.0,-3.93,-1.06,9.01
9382.0,-3.99,-1.39,9.11
9395.0,-3.82,-1.62,9.47
9408.0,-3.57,-1.64,9.54
9421.0,-3.19,-1.5,9.42
9434.0,-2.6,-1.39,9.44
9447.0,-1.99,-1.62,10.12
9460.0,-1.9,-2.24,11.09
9472.0,-2.2,-2.88,11.55
9485.0,-2.65,-3.25,11.5
9498.0,-2.91,-3.41,11.48
9511.0,-2.61,-3.39,11.69
9524.0,-1.37,-3.18,12.07
9537.0,-0.06,-2.83,11.99
9550.0,1.01,-2.33,11.52
9562.0,1.49,-1.85,10.67
9575.0,1.5,-1.57,9.68
9588.0,1.26,-1.67,9.15
9601.0,1.02,-1.77,8.83
9614.0,0.81,-1.88,8.63
9627.0,1.16,-1.92,8.87
9640.0,1.97,-2.04,9.23
9653.0,2.67,-2.29,9.85
9665.0,3.22,-2.58,10.15
9678.0,3.5,-2.62,10.21
9691.0,3.72,-2.36,10.13
9704.0,4.06,-2.16,9.99
9717.0,4.56,-2.25,10.41
9730.0,5.01,-2.43,10.87
9743.0,5.17,-2.68,11.21
9755.0,5.05,-2.83,11.3
9768.0,4.82,-2.77,11.1
9781.0,4.62,-2.62,10.76
9794.0,4.52,-2.51,10.4
9807.0,4.44,-2.34,10.02
9820.0,4.24,-2.11,9.66
9833.0,4.16,-1.73,9.3
9845.0,4.33,-1.2,8.94
9858.0,4.42,-0.77,8.65
9871.0,4.26,-0.82,8.77
9884.0,3.75,-1.29,9.21
9897.0,3.14,-1.79,9.6
9910.0,2.63,-1.95,9.67
9923.0,2.4,-1.89,9.45
9935.0,2.43,-1.83,9.31
9948.0,2.62,-1.94,9.61
9961.0,2.96,-2.18,10.08
9974.0,2.93,-2.37,10.19
9987.0,2.45,-2.35,9.75
10000.0,1.72,-2.39,9.28
10013.0,0.96,-2.69,9.25
10025.0,0.15,-3.08,9.91
10038.0,-0.54,-3.3,10.25
10051.0,-0.59,-3.16,10.31
10064.0,0.1,-2.68,10.23
10077.0,0.77,-2.31,10.35
10090.0,0.57,-2.24,10.36
10103.0,-0.31,-2.38,9.85
10115.0,-1.77,-2.68,9.5
10128.0,-3.26,-3.04,9.58
10141.0,-4.32,-3.21,9.55
10154.0,-4.77,-2.96,9.34
10167.0,-4.46,-2.55,9.4
10180.0,-3.6,-2.32,9.96
10193.0,-2.48,-2.55,11.49
10206.0,-2.0,-2.7,12.46
10218.0,-2.62,-2.65,11.83
10231.0,-3.78,-2.56,10.56
10244.0,-4.73,-2.44,9.62
10257.0,-5.33,-2.16,9.18
10270.0,-5.48,-2.01,9.1
10283.0,-5.45,-1.98,9.27
10296.0,-5.39,-1.85,9.18
10309.0,-5.36,-1.73,9.01
10321.0,-5.44,-1.66,8.98
10334.0,-5.73,-1.64,8.69
10347.0,-6.06,-1.66,8.41
10360.0,-6.09,-1.65,8.32
10373.0,-5.99,-1.72,8.44
10386.0,-5.79,-1.81,8.46
10399.0,-5.62,-1.92,8.65
10412.0,-5.37,-1.98,8.89
10424.0,-5.08,-2.0,9.17
10437.0,-4.79,-2.12,9.35
10450.0,-4.62,-2.18,9.25
10463.0,-4.55,-2.27,9.03
10476.0,-4.49,-2.43,9.0
10489.0,-4.23,-2.65,9.22
10502.0,-3.99,-2.97,9.73
10515.0,-3.75,-3.18,10.0
10527.0,-3.44,-3.15,9.96
10540.0,-3.04,-3.01,9.57
10553.0,-2.61,-2.82,9.15
10566.0,-1.99,-2.57,8.78
10579.0,-1.33,-2.46,8.84
10592.0,-0.9,-2.56,9.26
10605.0,-0.62,-2.78,9.72
10618.0,-0.54,-2.97,9.86
10630.0,-0.54,-3.11,9.51
10643.0,-0.55,-3.23,9.28
10656.0,-0.3,-3.5,9.45
10669.0,-0.17,-3.89,9.82
10682.0,0.35,-4.19,10.4
10695.0,1.07,-4.28,10.96
10708.0,1.9,-4.07,10.95
10720.0,2.73,-3.55,10.42
10733.0,3.42,-3.13,10.07
10746.0,3.82,-3.15,10.53
10759.0,3.99,-3.4,10.97
10772.0,3.92,-3.59,11.21
10785.0,4.05,-3.62,11.26
10798.0,4.37,-3.46,11.11
10810.0,4.74,-3.32,10.91
10823.0,5.07,-3.22,10.83
10836.0,4.93,-3.28,10.89
10849.0,4.44,-3.46,10.69
10862.0,3.95,-3.64,10.66
10875.0,3.66,-3.74,10.7
10888.0,3.62,-3.52,10.44
10901.0,3.51,-3.05,9.88
10913.0,3.44,-2.4,9.05
10926.0,3.44,-1.91,8.43
10939.0,3.48,-1.74,8.33
10952.0,3.59,-1.9,8.76
10965.0,3.52,-2.27,9.36
10978.0,3.18,-2.66,9.94
10991.0,2.66,-2.98,10.16
11003.0,2.19,-3.18,10.25
11016.0,1.82,-3.25,10.36
11029.0,1.66,-3.08,10.11
11042.0,1.96,-2.99,10.18
11055.0,2.31,-3.0,10.54
11068.0,2.25,-3.09,10.59
11081.0,2.01,-3.3,10.68
11093.0,1.44,-3.61,10.69
11106.0,0.59,-3.78,10.21
11119.0,-0.37,-3.87,9.49
11132.0,-0.65,-3.66,9.04
11145.0,-0.28,-3.45,9.34
11158.0,0.11,-3.32,9.78
11171.0,0.22,-3.33,10.33
11183.0,-0.21,-3.59,10.81
11196.0,-1.14,-3.85,10.62
11209.0,-2.55,-3.9,10.02
11222.0,-3.87,-3.62,8.99
11235.0,-4.35,-3.14,8.51
11248.0,-4.3,-2.84,8.78
11261.0,-3.93,-2.63,9.32
11274.0,-3.66,-2.55,9.85
11286.0,-3.72,-2.53,9.95
11299.0,-4.02,-2.46,9.67
11312.0,-4.38,-2.23,9.33
11325.0,-4.62,-2.05,9.07
11338.0,-4.77,-1.99,8.98
11351.0,-4.66,-1.95,9.17
11364.0,-4.47,-1.8,9.19
11377.0,-4.32,-1.65,9.12
11389.0,-4.12,-1.57,9.13
11402.0,-3.95,-1.58,9.45
11415.0,-4.14,-1.72,9.66
11428.0,-4.56,-1.85,9.57
11441.0,-4.91,-1.93,9.33
11454.0,-5.09,-1.89,9.11
11467.0,-5.01,-1.89,9.16
11480.0,-4.66,-1.93,9.45
11492.0,-4.27,-1.96,9.85
11505.0,-3.98,-1.95,9.96
11518.0,-3.8,-1.91,9.8
11531.0,-3.74,-1.86,9.67
11544.0,-3.76,-1.7,9.35
11557.0,-3.67,-1.53,9.11
11570.0,-3.48,-1.54,9.32
11583.0,-3.12,-1.85,9.85
11595.0,-2.7,-2.06,10.03
11608.0,-2.43,-2.18,10.16
11621.0,-2.35,-2.32,10.09
11634.0,-2.24,-2.52,10.12
11647.0,-1.96,-2.51,10.04
11660.0,-1.54,-2.44,9.95
11673.0,-1.25,-2.38,9.85
11686.0,-1.14,-2.5,9.88
11698.0,-1.26,-2.74,9.92
11711.0,-1.45,-3.33,9.9
11724.0,-2.01,-3.96,10.27
11737.0,-1.78,-4.44,10.72
11750.0,-0.46,-4.55,11.7
11763.0,1.34,-4.01,12.39
11776.0,2.9,-3.25,11.97
11789.0,3.88,-2.27,10.74
11801.0,4.05,-1.4,9.23
11814.0,3.68,-1.24,9.06
11827.0,3.23,-1.88,9.55
11840.0,3.05,-2.7,10.1
11853.0,3.3,-3.12,10.35
11866.0,3.78,-2.98,10.07
11879.0,4.67,-2.7,10.07
11891.0,5.56,-2.56,10.24
11904.0,6.02,-2.63,10.41
11917.0,6.05,-2.8,10.49
11930.0,5.78,-3.0,10.32
11943.0,5.3,-3.13,10.2
11956.0,4.96,-3.19,10.1
11969.0,4.87,-3.0,9.8
11981.0,4.86,-2.81,9.55
11994.0,4.84,-2.53,9.22
12007.0,4.87,-2.18,9.12
12020.0,4.72,-1.88,8.92
12033.0,4.42,-1.71,8.78
12046.0,4.11,-1.79,8.95
12059.0,3.66,-2.08,9.56
12071.0,3.13,-2.44,9.95
12084.0,2.47,-2.74,10.04
12097.0,2.19,-2.96,9.87
12110.0,2.36,-3.05,9.92
12123.0,2.18,-3.09,10.08
12136.0,1.5,-3.15,9.98
12149.0,0.46,-3.33,9.77
12161.0,0.0,-3.54,9.69
12174.0,0.21,-3.67,9.8
12187.0,0.71,-3.7,10.18
12200.0,1.12,-3.73,10.64
12213.0,1.56,-3.5,10.76
12226.0,1.65,-3.19,10.55
12239.0,1.67,-2.89,10.36
12251.0,1.3,-2.72,10.35
12264.0,0.44,-2.72,10.27
12277.0,-0.5,-2.68,9.98
12290.0,-1.35,-2.54,9.57
12303.0,-1.95,-2.42,9.36
12316.0,-2.36,-2.49,9.59
12329.0,-2.56,-2.59,10.07
12341.0,-2.8,-2.45,10.29
12354.0,-2.89,-2.15,10.17
12367.0,-2.98,-1.79,9.84
12380.0,-3.06,-1.58,9.65
12393.0,-3.17,-1.55,9.74
12406.0,-3.54,-1.51,9.76
12419.0,-3.95,-1.45,9.48
12432.0,-4.4,-1.29,8.94
12444.0,-4.61,-1.07,8.52
12457.0,-4.71,-0.97,8.48
12470.0,-4.77,-0.98,8.67
12483.0,-4.78,-1.14,9.02
12496.0,-4.83,-1.35,9.42
12509.0,-4.94,-1.57,9.8
12522.0,-5.09,-1.78,9.96
12535.0,-5.19,-1.76,9.82
12547.0,-5.1,-1.61,9.56
12560.0,-4.96,-1.47,9.43
12573.0,-4.67,-1.35,9.37
12586.0,-4.18,-1.32,9.62
12599.0,-3.73,-1.32,9.96
12612.0,-3.55,-1.26,9.81
12625.0,-3.65,-1.14,9.4
12638.0,-3.85,-1.15,8.87
12650.0,-4.02,-1.2,8.42
12663.0,-3.95,-1.37,8.4
12676.0,-3.51,-1.66,8.66
12689.0,-2.85,-1.88,9.42
12702.0,-2.24,-2.11,10.1
12715.0,-2.09,-2.24,10.15
12728.0,-2.24,-2.23,9.66
12741.0,-2.48,-2.26,9.09
12753.0,-2.51,-2.37,8.97
12766.0,-2.4,-2.62,9.45
12779.0,-2.1,-3.08,10.39
12792.0,-1.37,-3.37,11.07
12805.0,-0.65,-3.23,11.21
12818.0,-0.04,-2.9,10.89
12831.0,0.37,-2.5,10.34
12844.0,0.49,-2.18,9.68
12856.0,0.51,-2.08,9.35
