timestamp,accX,accY,accZ
2.0,-1.19,-1.98,11.55
15.0,-0.67,-1.58,9.35
28.0,-0.74,-1.73,10.56
41.0,-0.91,-1.67,10.05
54.0,-1.0,-1.73,9.75
67.0,-0.98,-1.98,9.87
79.0,-0.59,-2.22,10.32
92.0,0.06,-2.2,10.71
105.0,0.74,-1.84,10.63
118.0,1.3,-1.3,9.99
131.0,1.67,-0.84,9.31
144.0,1.65,-0.69,8.92
157.0,1.55,-1.07,9.21
169.0,1.48,-1.7,9.93
182.0,1.57,-2.19,10.49
195.0,1.8,-2.29,10.35
208.0,2.17,-2.1,9.78
221.0,2.83,-1.78,9.54
234.0,3.72,-1.47,9.61
247.0,4.58,-1.31,9.84
259.0,5.05,-1.36,10.04
272.0,5.27,-1.52,10.21
285.0,5.45,-1.81,10.69
298.0,5.62,-2.09,10.91
311.0,5.84,-2.1,10.63
324.0,6.27,-1.98,10.56
337.0,6.61,-1.96,10.81
349.0,6.31,-2.0,10.64
362.0,5.39,-2.15,10.09
375.0,4.47,-2.17,9.52
388.0,4.07,-2.12,9.4
401.0,3.9,-2.1,9.75
414.0,3.8,-2.39,10.07
427.0,3.74,-2.99,11.08
439.0,3.49,-3.44,11.85
452.0,3.08,-3.45,11.62
465.0,2.47,-3.35,11.14
478.0,2.08,-3.08,10.79
491.0,2.06,-2.71,10.52
504.0,2.02,-2.49,10.56
517.0,1.87,-2.45,10.54
529.0,1.79,-2.49,10.65
542.0,1.63,-2.46,11.01
555.0,1.26,-2.2,10.9
568.0,0.51,-1.73,10.16
581.0,-0.34,-1.6,9.8
594.0,-1.21,-1.51,9.56
607.0,-1.84,-1.3,9.41
620.0,-2.17,-0.9,9.35
632.0,-2.48,-0.4,9.31
645.0,-2.83,-0.06,9.04
658.0,-3.22,0.21,8.75
671.0,-3.74,0.31,8.63
684.0,-4.31,0.32,8.63
697.0,-4.85,0.34,8.58
710.0,-5.37,0.37,8.49
722.0,-5.75,0.44,8.31
735.0,-5.75,0.6,8.24
748.0,-5.52,0.68,8.62
761.0,-5.29,0.62,9.06
774.0,-5.32,0.52,9.34
787.0,-5.4,0.37,9.33
800.0,-5.68,0.09,9.49
812.0,-5.94,-0.32,9.85
825.0,-6.17,-0.6,9.96
838.0,-6.21,-0.71,10.06
851.0,-6.03,-0.73,10.07
864.0,-5.69,-0.73,10.24
877.0,-5.39,-0.82,10.71
890.0,-5.31,-1.0,11.11
903.0,-5.4,-1.2,11.11
915.0,-5.47,-1.3,10.84
928.0,-5.28,-1.23,10.49
941.0,-4.55,-1.03,10.18
954.0,-3.79,-0.79,10.24
967.0,-3.28,-0.74,10.33
980.0,-3.41,-0.81,10.06
993.0,-3.52,-1.13,9.56
1006.0,-3.02,-1.6,10.1
1018.0,-2.14,-1.76,10.56
1031.0,-1.42,-1.56,10.18
1044.0,-0.97,-1.55,10.04
1057.0,-0.3,-1.7,10.31
1070.0,0.55,-1.58,10.64
1083.0,1.23,-1.44,10.72
1096.0,1.87,-1.14,10.46
1109.0,2.37,-0.93,10.04
1121.0,3.23,-0.88,9.99
1134.0,3.6,-0.88,10.38
1147.0,3.59,-1.1,10.31
1160.0,3.06,-1.4,10.05
1173.0,2.34,-1.82,9.79
1186.0,2.3,-2.2,9.88
1199.0,3.39,-2.08,10.37
1211.0,4.89,-1.6,10.7
1224.0,5.91,-1.23,10.56
1237.0,6.32,-0.96,10.05
1250.0,6.61,-0.88,9.7
1263.0,6.87,-0.97,9.74
1276.0,6.79,-1.24,9.88
1289.0,6.45,-1.64,10.08
1301.0,6.24,-1.95,10.24
1314.0,6.32,-2.03,10.45
1327.0,6.67,-2.01,10.38
1340.0,7.04,-1.71,10.58
1353.0,6.83,-1.49,10.59
1366.0,6.05,-1.44,10.01
1379.0,5.49,-1.47,9.43
1391.0,5.6,-1.48,9.35
1404.0,5.89,-1.45,9.69
1417.0,5.52,-1.88,10.59
1430.0,4.63,-2.71,11.3
1443.0,3.86,-3.05,11.46
1456.0,3.2,-2.9,10.92
1469.0,2.72,-2.59,10.28
1481.0,1.72,-2.58,9.83
1494.0,0.52,-2.7,9.48
1507.0,-0.59,-2.73,9.44
1520.0,-1.19,-2.52,9.45
1533.0,-1.59,-2.15,9.51
1546.0,-2.27,-1.92,9.4
1559.0,-2.79,-1.78,9.42
1571.0,-3.28,-1.65,9.64
1584.0,-3.65,-1.45,9.78
1597.0,-4.09,-1.42,9.96
1610.0,-4.28,-1.4,10.28
1623.0,-4.17,-1.25,10.74
1636.0,-4.08,-0.94,10.94
1649.0,-4.38,-0.73,10.77
1662.0,-5.05,-0.62,10.4
1674.0,-5.74,-0.78,10.21
1687.0,-6.3,-1.22,10.62
1700.0,-6.51,-1.62,11.24
1713.0,-6.46,-1.63,11.46
1726.0,-6.36,-1.24,11.05
1739.0,-6.09,-0.78,10.42
1752.0,-5.72,-0.39,10.07
1765.0,-5.23,-0.04,9.8
1777.0,-4.77,0.25,9.4
1790.0,-4.53,0.15,9.51
1803.0,-4.43,-0.21,9.76
1816.0,-4.33,-0.46,10.0
1829.0,-4.16,-0.43,9.7
1842.0,-3.96,-0.1,8.94
1855.0,-3.52,0.34,8.13
1868.0,-2.67,0.59,8.15
1880.0,-1.89,0.23,9.65
1893.0,-2.72,-0.94,10.92
1906.0,-4.48,-2.47,10.82
1919.0,-5.29,-3.31,10.15
1932.0,-4.66,-3.32,10.18
1945.0,-2.82,-3.04,10.86
1958.0,-1.63,-3.22,11.94
1970.0,-0.41,-2.74,12.11
1983.0,0.22,-2.24,11.26
1996.0,0.21,-1.5,10.18
2009.0,0.76,-1.39,9.74
2022.0,1.3,-1.23,9.87
2035.0,2.2,-1.0,9.85
2048.0,2.8,-0.83,9.87
2061.0,2.89,-0.94,9.71
2073.0,2.81,-1.32,9.78
2086.0,2.36,-1.72,10.31
2099.0,2.65,-1.77,10.19
2112.0,3.18,-1.57,10.5
2125.0,3.96,-1.15,10.48
2138.0,4.74,-0.73,10.22
2151.0,5.72,-0.49,9.93
2163.0,6.97,-0.33,10.18
2176.0,8.19,-0.43,10.97
2189.0,8.51,-0.96,11.65
2202.0,8.01,-1.68,11.65
2215.0,7.08,-2.27,11.06
2228.0,6.23,-2.6,10.72
2241.0,5.54,-2.96,10.56
2253.0,4.67,-3.2,10.27
2266.0,3.8,-3.25,9.95
2279.0,3.65,-3.29,10.29
2292.0,4.29,-3.26,11.05
2305.0,4.95,-2.97,11.75
2318.0,4.8,-2.42,11.12
2331.0,4.0,-2.2,10.46
2343.0,3.1,-1.92,9.22
2356.0,3.18,-1.48,8.89
2369.0,3.94,-1.25,9.09
2382.0,3.93,-1.54,9.87
2395.0,5.38,-2.24,11.35
2408.0,5.27,-2.64,13.19
2421.0,3.65,-2.98,12.1
2433.0,1.72,-3.24,11.05
2446.0,0.08,-3.15,10.31
2459.0,-1.08,-2.73,10.08
2472.0,-1.57,-2.04,9.41
2485.0,-1.73,-1.3,8.93
2498.0,-1.94,-0.89,8.52
2511.0,-2.32,-0.77,8.47
2523.0,-2.85,-0.79,8.68
2536.0,-3.4,-0.94,9.02
2549.0,-4.15,-1.2,9.44
2562.0,-4.78,-1.47,9.93
2575.0,-5.24,-1.57,10.1
2588.0,-5.53,-1.37,9.83
2601.0,-5.46,-1.04,9.48
2614.0,-4.98,-0.71,9.78
2626.0,-4.57,-0.63,10.51
2639.0,-4.66,-0.7,10.8
2652.0,-5.11,-0.92,10.8
2665.0,-5.62,-1.32,11.12
2678.0,-6.12,-1.65,11.49
2691.0,-6.43,-1.83,11.55
2704.0,-6.45,-1.66,11.39
2717.0,-6.35,-1.28,10.8
2729.0,-6.17,-0.84,10.0
2742.0,-5.86,-0.49,9.51
2755.0,-5.46,-0.42,9.39
2768.0,-4.75,-0.57,9.89
2781.0,-4.29,-0.7,10.2
2794.0,-3.91,-0.82,9.96
2807.0,-3.47,-0.88,10.25
2820.0,-3.55,-1.28,9.49
2832.0,-3.29,-1.49,9.52
2845.0,-2.96,-1.45,9.27
2858.0,-2.36,-1.55,9.14
2871.0,-1.33,-1.89,10.04
2884.0,-0.31,-2.11,10.79
2897.0,0.31,-2.31,11.13
2910.0,0.47,-2.4,10.72
2923.0,0.26,-2.51,10.15
2935.0,-0.04,-2.81,9.76
2948.0,0.22,-2.88,9.71
2961.0,1.01,-2.9,10.25
2974.0,2.1,-2.95,11.26
2987.0,2.99,-2.7,11.44
3000.0,3.27,-2.14,10.51
3013.0,3.02,-1.54,8.94
3025.0,2.76,-1.37,8.03
3038.0,3.77,-1.66,8.69
3051.0,5.74,-1.97,10.59
3064.0,7.14,-2.16,11.81
3077.0,7.64,-2.13,11.71
3090.0,7.36,-1.87,10.9
3103.0,7.18,-1.67,10.41
3115.0,7.61,-1.61,10.74
3128.0,8.21,-1.78,11.47
3141.0,8.43,-1.89,11.57
3154.0,8.3,-1.79,11.15
3167.0,7.95,-1.76,10.91
3180.0,7.4,-1.81,10.65
3193.0,6.67,-1.99,10.45
3205.0,6.11,-2.14,10.45
3218.0,6.0,-2.16,10.56
3231.0,6.21,-1.87,10.28
3244.0,6.36,-1.52,9.7
3257.0,5.95,-1.45,9.11
3270.0,5.3,-1.83,8.98
3283.0,4.73,-2.48,9.53
3295.0,4.5,-3.21,10.42
3308.0,4.44,-3.79,11.37
3321.0,4.11,-4.06,11.9
3334.0,3.2,-4.26,11.88
3347.0,2.18,-4.27,11.36
3360.0,1.51,-3.9,10.55
3373.0,0.79,-3.25,9.41
3385.0,0.11,-2.6,8.25
3398.0,-0.33,-2.02,7.74
3411.0,-0.63,-1.72,7.88
3424.0,-0.56,-1.98,9.11
3437.0,-0.59,-2.46,10.52
3450.0,-1.19,-2.63,10.83
3463.0,-2.31,-2.54,10.01
3476.0,-3.39,-2.36,9.39
3488.0,-4.19,-2.25,9.07
3501.0,-4.53,-2.15,9.39
3514.0,-4.61,-2.15,9.99
3527.0,-4.85,-2.11,10.27
3540.0,-5.38,-2.02,10.33
3553.0,-6.08,-1.88,9.81
3566.0,-6.57,-1.7,9.5
3579.0,-6.56,-1.39,9.35
3591.0,-6.14,-0.91,9.18
3604.0,-5.72,-0.75,9.55
3617.0,-5.34,-0.84,10.3
3630.0,-5.25,-1.03,10.92
3643.0,-5.41,-1.21,11.09
3656.0,-5.78,-1.34,11.03
3669.0,-6.17,-1.41,10.61
3682.0,-6.15,-1.25,10.25
3694.0,-6.06,-1.09,10.07
3707.0,-6.06,-1.1,9.88
3720.0,-5.76,-1.19,9.96
3733.0,-5.31,-1.14,9.93
3746.0,-4.73,-1.08,9.83
3759.0,-4.26,-1.15,9.9
3772.0,-3.76,-1.3,10.07
3785.0,-3.34,-1.37,10.21
3797.0,-3.07,-1.34,9.87
3810.0,-2.84,-1.5,9.68
3823.0,-2.59,-1.81,9.61
3836.0,-2.36,-2.13,9.6
3849.0,-2.06,-2.32,9.59
3862.0,-1.43,-2.42,9.8
3875.0,-0.42,-2.4,10.33
3888.0,0.52,-1.97,10.17
3900.0,1.43,-1.51,9.89
3913.0,2.37,-1.29,10.15
3926.0,3.28,-1.4,10.96
3939.0,4.17,-1.51,11.62
3952.0,4.84,-1.21,11.28
3965.0,5.35,-0.58,10.27
3978.0,5.04,-0.14,9.3
3990.0,4.51,-0.67,9.49
4003.0,4.48,-1.89,10.85
4016.0,4.78,-2.58,11.74
4029.0,5.2,-2.65,11.5
4042.0,5.56,-2.35,10.96
4055.0,6.02,-2.08,10.35
4068.0,6.49,-2.02,10.39
4080.0,6.86,-2.29,10.97
4093.0,6.79,-2.4,11.08
4106.0,6.42,-2.35,10.52
4119.0,6.0,-2.04,9.62
4132.0,5.93,-1.65,8.74
4145.0,6.21,-1.39,8.61
4158.0,6.62,-1.41,9.18
4170.0,6.87,-1.72,9.93
4183.0,7.0,-2.03,10.29
4196.0,6.7,-2.09,10.12
4209.0,6.05,-1.94,9.46
4222.0,5.29,-2.08,9.42
4235.0,4.58,-2.51,10.0
4248.0,4.05,-2.78,10.21
4260.0,3.71,-2.8,10.36
4273.0,3.4,-2.83,10.59
4286.0,3.1,-2.8,11.08
4299.0,2.45,-2.96,11.42
4312.0,1.24,-3.18,10.92
4325.0,0.0,-3.11,10.13
4338.0,-0.6,-2.7,9.62
4350.0,-0.97,-1.97,9.37
4363.0,-1.65,-1.55,9.59
4376.0,-2.21,-1.74,10.44
4389.0,-2.36,-2.17,11.47
4402.0,-2.57,-2.4,12.03
4415.0,-3.08,-2.15,11.46
4428.0,-3.75,-1.9,10.59
4441.0,-4.02,-1.66,10.12
4453.0,-4.07,-1.39,9.86
4466.0,-4.06,-1.12,9.69
4479.0,-3.9,-0.93,9.82
4492.0,-3.96,-0.82,9.66
4505.0,-4.21,-0.81,9.39
4518.0,-4.57,-0.8,9.08
4531.0,-4.95,-1.09,9.42
4544.0,-5.36,-1.5,9.98
4556.0,-5.74,-1.72,10.24
4569.0,-5.83,-1.67,10.09
4582.0,-5.77,-1.46,9.97
4595.0,-5.67,-1.26,9.89
4608.0,-5.6,-1.07,9.77
4621.0,-5.8,-0.88,9.57
4634.0,-6.08,-0.8,9.17
4647.0,-6.46,-0.91,8.96
4659.0,-6.4,-1.22,9.31
4672.0,-5.94,-1.45,10.18
4685.0,-5.63,-1.52,10.41
4698.0,-5.4,-1.4,10.07
4711.0,-4.88,-1.27,9.81
4724.0,-4.17,-1.23,10.08
4737.0,-3.61,-1.12,10.2
4750.0,-3.02,-1.11,10.31
4762.0,-2.46,-1.08,10.55
4775.0,-2.13,-1.16,10.5
4788.0,-2.0,-1.21,10.12
4801.0,-1.93,-1.26,9.69
4814.0,-2.02,-1.28,9.0
4827.0,-1.87,-1.42,8.58
4840.0,-0.86,-1.75,9.43
4853.0,0.53,-1.99,10.96
4865.0,1.31,-1.91,11.36
4878.0,1.51,-1.59,10.58
4891.0,1.74,-0.9,8.87
4904.0,2.08,-0.62,7.62
4917.0,2.95,-1.19,8.33
4930.0,4.04,-2.2,10.31
4943.0,4.8,-3.17,12.79
4955.0,4.96,-3.69,14.19
4968.0,4.91,-3.52,13.29
4981.0,5.09,-3.02,11.86
4994.0,5.73,-2.36,10.56
5007.0,6.55,-1.97,9.97
5020.0,7.06,-1.87,9.86
5033.0,7.31,-1.85,9.77
5045.0,7.67,-1.98,10.2
5058.0,7.97,-2.26,11.22
5071.0,7.84,-2.45,11.61
5084.0,7.14,-2.32,10.85
5097.0,6.72,-1.83,9.66
5110.0,6.87,-1.26,9.06
5123.0,7.33,-0.76,8.96
5135.0,7.57,-0.59,9.19
5148.0,7.54,-0.97,9.84
5161.0,6.95,-1.59,10.4
5174.0,5.89,-2.08,10.22
5187.0,4.58,-2.49,10.13
5200.0,3.76,-3.21,10.48
5213.0,3.63,-4.0,11.66
5225.0,4.24,-3.81,11.39
5238.0,4.62,-2.89,10.74
5251.0,3.85,-2.52,10.15
5264.0,2.0,-2.73,9.66
5277.0,0.4,-2.96,9.31
5290.0,-0.65,-2.7,9.35
5303.0,-1.42,-2.3,9.53
5316.0,-2.04,-1.98,9.41
5328.0,-2.15,-1.4,9.31
5341.0,-1.86,-0.65,9.31
5354.0,-1.69,0.08,9.18
5367.0,-1.63,0.74,8.79
5380.0,-1.87,1.1,8.62
5393.0,-2.68,0.82,8.67
5406.0,-3.72,0.11,9.13
5418.0,-4.66,-0.34,9.53
5431.0,-5.18,-0.55,9.93
5444.0,-5.42,-0.81,10.6
5457.0,-5.57,-0.96,11.03
5470.0,-5.72,-0.77,10.84
5483.0,-5.79,-0.41,10.08
5496.0,-5.88,-0.26,9.78
5509.0,-5.89,-0.4,10.11
5521.0,-6.03,-0.51,10.47
5534.0,-6.3,-0.69,10.47
5547.0,-6.47,-0.81,10.39
5560.0,-6.56,-0.86,10.39
5573.0,-6.64,-0.93,10.55
5586.0,-6.69,-0.87,10.39
5599.0,-6.48,-0.54,9.91
5612.0,-5.92,-0.18,9.78
5624.0,-5.57,-0.02,9.86
5637.0,-5.41,-0.02,9.77
5650.0,-5.25,-0.18,9.98
5663.0,-4.9,-0.14,9.95
5676.0,-4.47,-0.17,10.04
5689.0,-4.06,-0.41,10.31
5702.0,-3.43,-0.65,10.22
5715.0,-2.39,-0.63,10.38
5727.0,-1.18,-0.41,10.56
5740.0,-0.59,0.04,9.93
5753.0,-0.88,0.23,8.57
5766.0,-1.46,-0.46,8.26
5779.0,-1.66,-1.8,9.52
5792.0,-1.26,-2.7,10.61
5805.0,-0.51,-2.82,10.56
5818.0,0.3,-2.64,10.11
5830.0,1.17,-2.89,10.98
5843.0,2.0,-3.43,12.45
5856.0,2.63,-3.62,12.96
5869.0,3.17,-3.23,12.42
5882.0,3.46,-2.52,11.27
5895.0,3.5,-1.76,9.9
5908.0,3.51,-1.2,8.68
5920.0,3.72,-1.41,9.07
5933.0,4.19,-2.09,10.33
5946.0,4.82,-2.72,11.54
5959.0,5.29,-2.78,11.71
5972.0,5.64,-2.37,10.75
5985.0,6.08,-1.86,9.73
5998.0,6.78,-1.46,9.48
6010.0,7.42,-1.24,9.73
6023.0,7.73,-1.4,10.18
6036.0,7.67,-1.79,10.68
6049.0,7.63,-2.09,10.75
6062.0,7.39,-1.98,10.42
6075.0,6.75,-1.78,9.83
6088.0,6.14,-1.76,9.86
6100.0,5.79,-1.87,9.96
6113.0,5.77,-2.06,10.2
6126.0,6.27,-2.45,11.06
6139.0,6.29,-2.44,11.49
6152.0,5.45,-2.3,10.57
6165.0,3.77,-2.44,9.91
6178.0,2.27,-2.44,9.03
6190.0,2.15,-2.58,9.0
6203.0,2.74,-2.27,8.77
6216.0,3.11,-2.22,9.44
6229.0,2.7,-2.89,10.91
6242.0,2.4,-3.71,12.35
6255.0,1.94,-4.11,13.31
6268.0,0.48,-3.82,12.5
6280.0,-1.21,-3.39,11.09
6293.0,-2.25,-2.99,10.07
6306.0,-2.65,-2.31,9.55
6319.0,-2.68,-1.46,9.05
6332.0,-2.86,-0.7,8.41
6345.0,-2.97,-0.38,8.28
6358.0,-3.27,-0.76,9.44
6370.0,-4.18,-1.37,10.16
6383.0,-5.22,-1.73,10.05
6396.0,-5.99,-1.63,9.53
6409.0,-6.13,-1.26,9.14
6422.0,-5.63,-0.78,9.36
6435.0,-5.0,-0.46,9.92
6448.0,-5.0,-0.34,10.2
6461.0,-5.47,-0.49,10.16
6473.0,-5.99,-0.84,10.28
6486.0,-6.12,-1.07,10.5
6499.0,-6.05,-1.14,10.8
6512.0,-6.25,-1.18,10.67
6525.0,-6.45,-1.0,10.03
6538.0,-6.49,-0.76,9.35
6551.0,-6.51,-0.58,9.05
6564.0,-6.42,-0.57,9.0
6576.0,-6.26,-0.46,8.83
6589.0,-6.17,-0.42,8.5
6602.0,-5.98,-0.47,8.39
6615.0,-5.73,-0.54,8.44
6628.0,-5.1,-0.72,8.79
6641.0,-4.27,-0.89,9.61
6654.0,-3.51,-1.1,10.07
6667.0,-2.67,-1.28,10.3
6679.0,-1.83,-1.4,10.69
6692.0,-1.25,-1.47,10.77
6705.0,-1.0,-1.7,10.65
6718.0,-1.08,-2.18,10.65
6731.0,-1.4,-2.47,10.14
6744.0,-1.31,-2.44,9.55
6757.0,-0.78,-2.63,10.49
6770.0,0.25,-2.89,11.62
6782.0,1.43,-2.83,11.96
6795.0,2.33,-2.45,11.67
6808.0,2.77,-2.06,10.86
6821.0,2.76,-1.74,9.78
6834.0,3.27,-1.47,9.11
6847.0,4.23,-1.42,9.45
6860.0,5.88,-1.45,10.58
6872.0,7.41,-1.27,11.55
6885.0,8.38,-0.84,11.47
6898.0,8.49,-0.57,11.01
6911.0,7.83,-0.86,10.74
6924.0,7.17,-1.44,10.68
6937.0,7.06,-1.79,10.82
6950.0,7.18,-1.8,10.51
6962.0,7.27,-1.82,10.35
6975.0,7.22,-2.05,10.61
6988.0,6.93,-2.27,10.65
7001.0,6.38,-2.4,10.53
7014.0,5.74,-2.39,10.26
7027.0,5.52,-2.32,10.28
7040.0,5.46,-2.35,10.57
7053.0,5.83,-2.44,10.87
7065.0,6.22,-2.41,11.21
7078.0,6.2,-2.21,10.93
7091.0,5.23,-2.22,10.6
7104.0,3.93,-2.31,10.03
7117.0,2.88,-2.18,9.5
7130.0,2.36,-1.96,9.05
7143.0,1.73,-2.0,9.12
7155.0,1.1,-2.48,9.6
7168.0,1.12,-3.12,10.67
7181.0,1.14,-3.03,10.88
7194.0,0.57,-2.55,10.17
7207.0,-0.44,-2.02,9.01
7220.0,-1.47,-1.87,8.68
7233.0,-2.04,-2.01,9.09
7245.0,-2.0,-2.19,9.81
7258.0,-1.85,-2.39,10.91
7271.0,-2.01,-2.63,11.73
7284.0,-2.68,-2.65,11.5
7297.0,-3.94,-2.25,10.19
7310.0,-4.66,-1.63,9.02
7323.0,-4.69,-1.04,8.72
7336.0,-3.91,-0.58,9.25
7348.0,-2.95,-0.19,9.57
7361.0,-2.18,0.11,9.66
7374.0,-2.07,0.43,9.48
7387.0,-2.75,0.57,8.91
7400.0,-3.54,0.29,9.03
7413.0,-4.42,-0.34,9.7
7426.0,-5.42,-1.04,10.19
7438.0,-6.48,-1.66,10.64
7451.0,-7.36,-2.13,10.92
7464.0,-7.8,-2.33,11.2
7477.0,-7.84,-2.18,11.39
7490.0,-7.62,-1.82,11.1
7503.0,-7.4,-1.45,10.81
7516.0,-7.26,-1.14,10.39
7529.0,-6.88,-0.8,9.96
7541.0,-6.35,-0.44,9.7
7554.0,-5.84,-0.05,9.18
7567.0,-5.83,0.09,8.62
7580.0,-6.23,-0.25,8.13
7593.0,-6.36,-0.77,8.09
7606.0,-6.02,-1.24,8.3
7619.0,-5.36,-1.47,8.64
7632.0,-4.79,-1.65,8.73
7644.0,-4.06,-1.91,9.11
7657.0,-3.47,-2.11,9.47
7670.0,-2.97,-2.41,9.6
7683.0,-2.54,-2.53,9.53
7696.0,-1.9,-2.35,9.21
7709.0,-1.11,-2.16,9.08
7722.0,-0.43,-2.1,9.2
7735.0,0.38,-2.15,9.47
7747.0,1.17,-2.25,10.16
7760.0,1.6,-2.42,10.83
7773.0,1.96,-2.53,10.88
7786.0,2.1,-2.63,10.58
7799.0,2.08,-2.84,10.28
7812.0,2.22,-3.09,10.15
7825.0,2.72,-3.29,10.51
7837.0,3.75,-3.37,11.24
7850.0,4.8,-3.43,12.29
7863.0,5.67,-3.31,12.68
7876.0,6.51,-2.89,12.33
7889.0,7.07,-2.4,11.78
7902.0,7.28,-2.21,11.39
7915.0,7.38,-2.42,11.37
7927.0,7.66,-2.69,11.52
7940.0,7.74,-2.72,11.5
7953.0,7.42,-2.88,11.65
7966.0,6.92,-3.11,11.47
7979.0,6.48,-2.97,11.07
7992.0,6.4,-2.61,10.53
8005.0,6.42,-2.2,10.03
8017.0,6.19,-2.13,9.89
8030.0,6.08,-2.41,10.18
8043.0,6.29,-2.65,11.09
8056.0,6.14,-2.72,11.15
8069.0,5.13,-2.66,10.61
8082.0,3.72,-2.68,9.6
8095.0,2.67,-2.65,8.67
8107.0,2.91,-2.26,8.14
8120.0,3.57,-1.77,8.46
8133.0,4.34,-1.84,9.56
8146.0,4.26,-2.37,10.88
8159.0,3.03,-2.84,11.05
8172.0,1.61,-2.76,9.96
8185.0,0.52,-2.53,9.15
8197.0,-0.3,-2.45,8.85
8210.0,-0.31,-2.35,8.96
8223.0,0.08,-2.15,9.68
8236.0,0.42,-1.97,10.58
8249.0,0.15,-1.83,10.79
8262.0,-0.95,-1.88,10.58
8275.0,-2.23,-2.21,10.4
8288.0,-3.26,-2.38,10.33
8300.0,-3.99,-2.3,10.31
8313.0,-4.63,-1.98,9.8
8326.0,-4.69,-1.3,9.14
8339.0,-4.51,-0.59,8.71
8352.0,-4.25,-0.24,8.99
8365.0,-4.29,-0.19,9.45
8378.0,-4.89,-0.14,9.2
8391.0,-5.62,0.02,8.51
8403.0,-6.05,0.24,7.89
8416.0,-6.13,0.5,7.58
8429.0,-6.21,0.39,8.08
8442.0,-6.34,0.04,8.91
8455.0,-6.45,-0.18,9.56
8468.0,-6.73,-0.38,10.04
8481.0,-7.07,-0.75,10.35
8493.0,-7.11,-0.95,10.56
8506.0,-6.88,-1.04,10.89
8519.0,-6.48,-0.98,11.2
8532.0,-5.99,-0.87,11.31
8545.0,-5.47,-0.66,11.14
8558.0,-5.12,-0.4,10.56
8571.0,-4.9,-0.28,10.14
8584.0,-4.51,-0.41,10.25
8596.0,-4.12,-0.64,10.63
8609.0,-4.07,-0.81,10.32
8622.0,-4.21,-0.9,9.4
8635.0,-3.9,-1.04,8.86
8648.0,-3.12,-1.28,9.3
8661.0,-2.49,-1.49,9.56
8674.0,-2.13,-1.48,9.07
8687.0,-1.87,-1.33,8.27
8699.0,-1.35,-1.37,7.84
8712.0,-0.39,-1.79,8.78
8725.0,0.59,-2.33,10.25
8738.0,1.05,-2.77,10.9
8751.0,1.15,-3.12,11.03
8764.0,1.24,-3.34,10.93
8777.0,1.46,-3.1,10.17
8790.0,1.88,-2.6,9.53
8802.0,2.78,-2.47,9.8
8815.0,3.97,-2.56,10.62
8828.0,4.93,-2.59,11.15
8841.0,5.66,-2.6,11.44
8854.0,6.09,-2.39,11.36
8867.0,6.37,-2.32,11.33
8880.0,6.48,-2.55,11.68
8892.0,6.63,-2.82,11.84
8905.0,6.89,-2.85,11.71
8918.0,7.12,-2.6,11.17
8931.0,7.19,-2.43,10.76
8944.0,7.23,-2.53,10.95
8957.0,7.29,-2.66,11.25
8970.0,7.06,-2.7,11.15
8982.0,6.58,-2.57,10.75
8995.0,6.0,-2.32,10.12
9008.0,5.46,-2.07,9.67
9021.0,5.01,-1.96,9.25
9034.0,5.13,-1.97,9.4
9047.0,5.74,-2.1,10.36
9060.0,5.77,-2.4,11.01
9072.0,4.64,-2.83,10.62
9085.0,2.87,-3.15,9.64
9098.0,1.88,-3.27,9.34
9111.0,1.97,-3.26,9.64
9124.0,2.92,-3.31,11.04
9137.0,3.59,-3.03,12.06
9150.0,2.98,-2.47,11.33
9162.0,1.38,-1.89,9.65
9175.0,-0.33,-1.32,7.82
9188.0,-1.05,-0.82,7.05
9201.0,-1.18,-0.96,7.75
9214.0,-1.09,-1.64,9.21
9227.0,-0.8,-2.33,10.85
9240.0,-0.7,-2.54,11.82
9252.0,-1.12,-2.3,11.66
9265.0,-2.01,-1.87,10.47
9278.0,-2.8,-1.56,9.67
9291.0,-3.38,-1.39,9.61
9304.0,-3.48,-1.32,9.94
9317.0,-3.47,-1.26,10.35
9330.0,-3.75,-1.2,10.33
9343.0,-4.36,-1.12,9.84
9355.0,-4.98,-1.02,9.3
9368.0,-5.35,-0.97,9.15
9381.0,-5.42,-0.89,9.35
9394.0,-5.5,-0.91,9.53
9407.0,-5.62,-0.94,9.67
9420.0,-5.79,-1.02,9.78
9433.0,-5.89,-1.09,9.89
9446.0,-5.96,-1.11,9.87
9458.0,-6.14,-1.13,9.77
9471.0,-6.19,-1.17,9.74
9484.0,-6.06,-1.2,9.86
9497.0,-5.92,-1.13,9.85
9510.0,-5.85,-0.97,9.68
9523.0,-5.78,-0.87,9.38
9536.0,-5.44,-0.86,9.29
9549.0,-4.92,-0.89,9.5
9561.0,-4.33,-0.96,9.81
9574.0,-3.83,-1.01,9.99
9587.0,-3.61,-1.15,9.9
9600.0,-3.86,-1.34,9.42
9613.0,-3.46,-1.82,9.53
9626.0,-2.04,-2.25,10.7
9639.0,-0.26,-2.32,11.98
9652.0,0.71,-2.15,12.03
9664.0,0.74,-1.92,11.05
9677.0,0.43,-1.75,10.04
9690.0,0.3,-1.79,9.51
9703.0,0.06,-2.13,9.7
9716.0,-0.33,-2.75,9.55
9729.0,0.0,-3.36,9.97
9742.0,1.08,-3.81,10.79
9755.0,2.26,-3.67,10.97
9767.0,3.49,-3.32,10.91
9780.0,4.05,-2.94,10.45
9793.0,4.12,-2.86,10.1
9806.0,4.39,-3.14,10.52
9819.0,5.01,-3.24,11.1
9832.0,5.61,-3.05,11.16
9845.0,6.1,-2.55,10.53
9857.0,6.92,-1.88,9.86
9870.0,7.59,-1.46,9.63
9883.0,8.06,-1.62,10.25
9896.0,8.19,-1.95,10.88
9909.0,8.1,-1.89,10.87
9922.0,7.84,-1.59,10.3
9935.0,7.43,-1.31,9.58
9947.0,6.9,-1.25,9.22
9960.0,6.29,-1.3,9.05
9973.0,6.09,-1.29,8.77
9986.0,6.51,-1.56,9.58
9999.0,7.39,-2.18,11.3
10012.0,7.67,-2.59,12.59
10025.0,7.04,-2.73,12.17
10037.0,5.69,-2.55,10.56
10050.0,4.46,-2.57,9.32
10063.0,3.69,-2.75,9.0
10076.0,3.15,-3.17,9.06
10089.0,2.91,-3.25,9.03
10102.0,3.31,-3.08,9.34
10115.0,3.8,-3.0,9.8
10127.0,3.86,-3.12,10.84
10140.0,3.15,-3.19,10.8
10153.0,1.85,-3.09,10.0
10166.0,0.88,-2.83,9.3
10179.0,0.09,-2.52,8.73
10192.0,-0.5,-2.42,8.83
10205.0,-0.72,-2.54,10.0
10217.0,-1.05,-2.55,10.98
10230.0,-1.3,-2.32,11.59
10243.0,-1.82,-2.11,11.99
10256.0,-2.64,-2.04,11.95
10269.0,-3.75,-2.1,11.98
10282.0,-5.11,-1.95,11.68
10295.0,-6.16,-1.39,10.92
10308.0,-6.66,-0.75,10.31
10320.0,-6.66,0.02,9.5
10333.0,-6.45,0.61,8.9
10346.0,-6.11,0.94,8.65
10359.0,-5.93,0.88,8.67
10372.0,-5.82,0.5,8.72
10385.0,-5.97,-0.08,8.97
10398.0,-6.03,-0.6,9.29
10410.0,-5.87,-0.96,9.74
10423.0,-5.45,-0.98,9.81
10436.0,-4.66,-0.76,9.67
10449.0,-3.82,-0.49,9.82
10462.0,-3.25,-0.37,9.92
10475.0,-3.07,-0.45,10.29
10488.0,-3.17,-0.56,10.06
10501.0,-3.59,-0.52,9.46
10513.0,-3.89,-0.34,8.51
10526.0,-3.89,-0.29,8.01
10539.0,-3.31,-0.54,8.44
10552.0,-2.52,-0.71,9.08
10565.0,-2.12,-0.99,9.36
10578.0,-1.97,-1.49,9.52
10591.0,-2.0,-1.89,9.41
10604.0,-2.12,-2.12,9.2
10616.0,-2.21,-2.36,8.95
10629.0,-1.68,-2.86,9.83
10642.0,-0.74,-3.48,11.36
10655.0,0.09,-3.8,12.32
10668.0,0.8,-3.84,12.43
10681.0,1.41,-3.6,12.03
10694.0,1.77,-3.36,11.34
10707.0,1.72,-3.26,10.77
10719.0,1.71,-3.5,10.95
10732.0,1.75,-4.02,11.56
10745.0,1.94,-4.32,11.77
10758.0,2.66,-4.32,11.94
10771.0,3.72,-4.08,12.02
10784.0,4.76,-3.62,11.79
10797.0,5.32,-3.25,11.28
10809.0,5.51,-2.99,11.03
10822.0,5.67,-2.79,10.75
10835.0,5.87,-2.66,10.68
10848.0,6.26,-2.39,10.45
10861.0,6.77,-2.1,10.2
10874.0,7.11,-1.98,10.01
10887.0,7.18,-1.96,9.91
10899.0,7.1,-2.0,9.93
10912.0,6.77,-2.03,9.73
10925.0,6.24,-2.0,9.37
10938.0,5.79,-1.94,9.11
10951.0,5.96,-1.89,9.21
10964.0,6.19,-1.97,9.77
10977.0,6.3,-2.05,9.99
10989.0,6.14,-2.1,10.02
11002.0,5.42,-2.34,9.73
11015.0,4.16,-2.68,9.51
11028.0,3.2,-3.05,9.63
11041.0,2.9,-3.33,9.98
11054.0,3.24,-3.68,10.79
11067.0,3.52,-4.21,11.81
11079.0,3.11,-4.61,11.95
11092.0,2.0,-4.39,10.69
11105.0,1.31,-3.58,9.2
11118.0,1.06,-2.8,8.79
11131.0,0.75,-2.45,8.68
11144.0,0.47,-2.39,9.14
11157.0,0.16,-2.38,9.49
11169.0,-0.3,-2.42,9.71
11182.0,-0.71,-2.41,9.7
11195.0,-0.94,-2.31,9.79
11208.0,-1.31,-2.13,10.07
11221.0,-2.1,-2.16,10.3
11234.0,-3.03,-2.32,10.55
11247.0,-4.02,-2.59,10.73
11260.0,-5.3,-2.79,10.77
11272.0,-6.5,-2.71,10.28
11285.0,-7.19,-2.09,9.39
11298.0,-7.47,-1.49,8.72
11311.0,-7.39,-1.03,8.48
11324.0,-7.1,-0.96,9.05
11337.0,-6.93,-1.13,9.77
11350.0,-7.03,-1.29,10.08
11363.0,-7.37,-1.36,9.96
11375.0,-7.51,-1.38,9.9
11388.0,-7.4,-1.33,9.92
11401.0,-7.17,-1.1,9.68
11414.0,-6.94,-0.85,9.27
11427.0,-6.55,-0.63,8.98
11440.0,-6.05,-0.52,8.93
11453.0,-5.39,-0.54,9.06
11466.0,-4.75,-0.58,9.49
11478.0,-4.3,-0.76,9.81
11491.0,-3.99,-0.96,10.06
11504.0,-3.79,-1.1,10.17
11517.0,-3.71,-1.2,9.83
11530.0,-3.7,-1.38,9.52
11543.0,-3.49,-1.62,9.59
11556.0,-3.16,-1.77,9.9
11569.0,-2.8,-2.03,10.21
11581.0,-2.79,-2.27,10.33
11594.0,-2.83,-2.6,10.26
11607.0,-2.52,-3.05,10.67
11620.0,-2.15,-3.33,11.03
11633.0,-1.69,-3.46,11.01
11646.0,-1.29,-3.25,10.57
11659.0,-0.62,-2.93,9.98
11672.0,0.44,-2.44,9.49
11684.0,1.46,-2.04,9.14
11697.0,2.36,-2.0,8.96
11710.0,3.0,-2.38,9.65
11723.0,3.62,-3.11,11.04
11736.0,4.28,-3.8,12.3
11749.0,5.08,-4.02,12.87
11762.0,5.86,-3.59,12.44
11774.0,6.35,-2.86,11.53
11787.0,6.88,-2.14,10.63
11800.0,7.51,-1.5,10.14
11813.0,7.95,-1.42,10.3
11826.0,8.1,-1.8,10.8
11839.0,7.82,-2.3,11.21
11852.0,7.27,-2.55,11.01
11864.0,6.66,-2.53,10.35
11877.0,6.23,-2.24,9.63
11890.0,5.86,-1.8,8.89
11903.0,5.74,-1.39,8.44
11916.0,5.92,-1.17,8.56
11929.0,6.21,-1.15,8.97
11942.0,6.34,-1.35,9.48
11954.0,5.98,-1.78,10.01
11967.0,5.07,-2.29,10.16
11980.0,4.02,-2.54,9.78
11993.0,3.63,-2.31,9.45
12006.0,3.8,-1.97,9.31
12019.0,3.88,-1.84,9.39
12032.0,3.25,-2.22,9.7
12044.0,2.33,-2.78,9.82
12057.0,1.69,-2.88,9.93
12070.0,1.32,-2.69,9.82
12083.0,1.27,-2.27,9.74
12096.0,1.32,-2.29,10.62
12109.0,0.61,-2.75,11.24
12122.0,-0.74,-3.33,11.31
12134.0,-1.85,-3.61,11.2
12147.0,-2.77,-3.52,10.99
12160.0,-3.51,-2.99,10.38
12173.0,-3.58,-2.14,9.68
12186.0,-3.37,-1.32,9.15
12199.0,-2.96,-0.67,8.79
12212.0,-2.75,-0.43,8.81
12225.0,-2.63,-0.57,9.33
12237.0,-3.12,-1.16,10.38
12250.0,-4.18,-1.81,10.64
12263.0,-5.32,-2.1,10.3
12276.0,-6.09,-1.99,9.64
12289.0,-6.27,-1.63,9.08
12302.0,-5.96,-1.31,9.1
12315.0,-5.66,-1.25,9.65
12328.0,-5.6,-1.33,10.14
12340.0,-5.94,-1.49,10.23
12353.0,-6.25,-1.65,10.24
12366.0,-6.58,-1.67,9.97
12379.0,-6.66,-1.62,9.84
12392.0,-6.43,-1.58,9.87
12405.0,-5.87,-1.5,10.01
12418.0,-5.37,-1.33,10.06
12431.0,-4.97,-1.22,9.99
12443.0,-4.66,-1.19,9.96
12456.0,-4.5,-1.23,9.74
12469.0,-4.16,-1.3,9.45
12482.0,-3.77,-1.28,9.43
12495.0,-3.29,-1.25,9.27
12508.0,-2.77,-1.31,9.36
12521.0,-2.52,-1.43,9.48
12534.0,-2.26,-1.57,9.31
12546.0,-1.94,-1.69,9.24
12559.0,-1.44,-2.05,9.59
12572.0,-1.03,-2.5,10.1
12585.0,-1.22,-2.97,10.28
12598.0,-1.73,-3.29,10.12
12611.0,-1.98,-3.29,9.63
12624.0,-1.57,-3.13,9.46
12637.0,-0.46,-2.86,9.66
12649.0,0.74,-2.69,10.18
12662.0,1.68,-2.6,10.48
12675.0,1.93,-2.83,10.7
12688.0,1.71,-3.36,11.12
12701.0,1.68,-3.81,11.69
12714.0,2.32,-4.03,12.29
12727.0,3.51,-3.71,12.41
12739.0,4.44,-2.97,11.5
12752.0,4.98,-2.15,10.27
12765.0,5.31,-1.75,9.73
12778.0,5.55,-1.93,10.26
12791.0,5.77,-2.4,11.12
12804.0,5.94,-2.66,11.66
12817.0,6.45,-2.61,11.69
12829.0,7.17,-2.36,11.54
12842.0,7.83,-2.22,11.63
12855.0,8.0,-2.06,11.41
