timestamp,accX,accY,accZ
2.0,-5.35,-1.28,9.2
15.0,-4.07,-0.96,7.62
28.0,-4.35,-1.25,9.37
41.0,-3.96,-1.36,10.03
54.0,-3.55,-1.3,10.13
67.0,-2.97,-1.25,10.1
79.0,-2.32,-1.07,9.88
92.0,-1.69,-0.8,9.48
105.0,-1.23,-0.64,9.08
118.0,-0.82,-0.61,8.95
131.0,-0.51,-0.71,9.21
144.0,-0.08,-0.79,9.27
157.0,0.68,-0.71,9.28
170.0,1.8,-0.56,9.45
182.0,2.48,-0.44,9.68
195.0,2.17,-0.65,9.28
208.0,1.45,-1.43,9.23
221.0,1.03,-2.33,9.82
234.0,1.38,-2.9,10.85
247.0,2.32,-3.03,11.38
260.0,3.67,-2.81,11.48
272.0,4.82,-2.54,11.59
285.0,5.33,-2.25,11.08
298.0,5.6,-2.07,10.58
311.0,6.03,-2.11,10.93
324.0,6.54,-2.15,11.25
337.0,6.86,-2.18,11.44
350.0,6.66,-2.19,11.46
362.0,6.24,-2.23,10.99
375.0,5.77,-2.29,10.63
388.0,5.49,-2.18,10.31
401.0,5.33,-1.82,9.96
414.0,5.22,-1.44,9.79
427.0,5.01,-1.25,9.76
440.0,4.85,-1.23,9.56
452.0,4.64,-1.45,9.98
465.0,4.57,-1.7,10.54
478.0,4.23,-1.83,10.46
491.0,3.42,-1.93,10.05
504.0,2.63,-2.12,9.42
517.0,1.85,-2.44,9.29
530.0,1.44,-2.82,9.72
542.0,1.03,-3.31,10.39
555.0,1.09,-3.65,11.0
568.0,1.31,-3.89,11.45
581.0,1.54,-3.76,11.55
594.0,1.22,-3.49,11.0
607.0,0.58,-3.29,10.64
620.0,-0.49,-3.26,10.44
632.0,-1.68,-3.29,10.17
645.0,-2.74,-3.15,9.98
658.0,-3.41,-2.96,9.74
671.0,-3.45,-2.69,9.73
684.0,-3.17,-2.43,10.16
697.0,-2.88,-2.14,10.33
710.0,-2.86,-1.87,10.22
723.0,-3.3,-1.81,10.17
735.0,-4.03,-1.78,9.8
748.0,-4.81,-1.69,9.3
761.0,-5.45,-1.6,8.88
774.0,-5.81,-1.39,8.57
787.0,-5.94,-1.07,8.27
800.0,-5.77,-0.75,8.04
813.0,-5.35,-0.43,8.17
826.0,-5.07,-0.29,8.44
838.0,-4.92,-0.2,8.42
851.0,-4.94,-0.35,8.88
864.0,-5.19,-0.61,9.27
877.0,-5.65,-0.82,9.31
890.0,-6.03,-0.99,9.48
903.0,-6.44,-1.11,9.32
916.0,-6.62,-1.24,9.25
929.0,-6.39,-1.32,9.53
941.0,-6.02,-1.45,10.01
954.0,-5.77,-1.48,10.08
967.0,-5.42,-1.29,9.57
980.0,-4.76,-1.12,9.46
993.0,-4.09,-1.02,9.7
1006.0,-3.85,-1.07,9.78
1019.0,-3.95,-1.23,9.52
1032.0,-4.03,-1.49,9.43
1044.0,-3.52,-1.79,9.92
1057.0,-2.88,-1.82,10.42
1070.0,-2.52,-1.67,10.06
1083.0,-2.49,-1.81,9.6
1096.0,-2.78,-2.26,9.68
1109.0,-3.0,-2.72,10.02
1122.0,-2.94,-2.97,10.13
1135.0,-2.52,-2.97,10.24
1147.0,-1.75,-2.77,9.94
1160.0,-0.83,-2.57,9.79
1173.0,-0.09,-2.76,10.31
1186.0,0.76,-3.12,10.91
1199.0,1.51,-3.29,11.63
1212.0,1.95,-3.21,12.0
1225.0,2.29,-2.94,11.54
1237.0,2.85,-2.59,11.09
1250.0,3.56,-2.26,10.9
1263.0,4.11,-1.8,10.46
1276.0,4.39,-1.34,9.95
1289.0,4.79,-1.2,10.12
1302.0,5.37,-1.18,10.71
1315.0,5.82,-1.18,10.89
1327.0,5.84,-1.23,10.74
1340.0,5.44,-1.36,10.42
1353.0,4.84,-1.69,10.45
1366.0,4.35,-2.04,10.57
1379.0,4.24,-1.99,10.31
1392.0,4.48,-1.66,9.9
1405.0,4.91,-1.16,9.78
1417.0,5.08,-0.88,9.66
1430.0,5.02,-0.9,9.73
1443.0,4.86,-1.13,9.97
1456.0,4.42,-1.34,10.21
1469.0,3.77,-1.6,10.19
1482.0,2.76,-1.99,9.95
1495.0,2.03,-2.38,9.73
1507.0,1.89,-2.68,9.97
1520.0,2.37,-2.9,10.42
1533.0,2.84,-3.13,11.05
1546.0,2.82,-3.35,11.32
1559.0,2.14,-3.38,10.86
1572.0,1.3,-3.29,10.11
1585.0,0.65,-3.34,9.95
1598.0,-0.07,-3.47,9.92
1610.0,-0.62,-3.57,10.09
1623.0,-1.04,-3.49,10.17
1636.0,-1.22,-3.11,9.89
1649.0,-1.17,-2.72,9.6
1662.0,-1.12,-2.43,9.68
1675.0,-1.35,-2.31,9.77
1688.0,-1.78,-2.18,9.68
1701.0,-2.24,-1.95,9.36
1713.0,-2.73,-1.68,8.98
1726.0,-3.07,-1.53,8.95
1739.0,-3.21,-1.5,9.48
1752.0,-3.6,-1.51,9.84
1765.0,-4.05,-1.49,9.64
1778.0,-4.26,-1.08,8.91
1791.0,-4.41,-0.73,8.51
1804.0,-4.7,-0.85,8.91
1816.0,-5.29,-1.39,9.71
1829.0,-6.22,-2.11,10.35
1842.0,-7.04,-2.81,11.02
1855.0,-7.52,-3.26,11.36
1868.0,-7.47,-3.3,11.41
1881.0,-7.13,-2.94,11.24
1894.0,-6.74,-2.4,10.71
1907.0,-6.38,-1.93,10.36
1919.0,-6.14,-1.54,9.88
1932.0,-5.9,-1.28,9.5
1945.0,-5.67,-1.14,9.5
1958.0,-5.42,-1.06,9.35
1971.0,-5.38,-1.0,9.17
1984.0,-5.77,-1.12,8.65
1997.0,-5.9,-1.34,8.28
2010.0,-5.51,-1.49,8.48
2022.0,-4.66,-1.5,8.95
2035.0,-3.44,-1.45,9.4
2048.0,-2.34,-1.26,9.82
2061.0,-1.71,-1.2,9.96
2074.0,-1.81,-1.3,9.5
2087.0,-2.56,-1.62,8.79
2100.0,-3.09,-1.98,8.18
2113.0,-3.24,-2.26,7.92
2125.0,-2.83,-2.64,8.4
2138.0,-1.96,-3.01,9.4
2151.0,-0.93,-3.36,10.32
2164.0,0.18,-3.01,10.36
2177.0,1.02,-2.4,10.23
2190.0,1.7,-2.06,10.27
2203.0,2.54,-2.14,10.93
2215.0,3.25,-2.49,11.77
2228.0,3.47,-2.82,11.75
2241.0,3.12,-3.09,11.17
2254.0,2.35,-3.14,10.4
2267.0,2.46,-2.91,9.23
2280.0,2.74,-2.47,8.98
2293.0,4.17,-2.31,9.94
2305.0,5.77,-2.04,10.91
2318.0,7.21,-1.94,11.54
2331.0,7.65,-2.3,11.53
2344.0,7.19,-2.65,11.44
2357.0,6.57,-2.84,11.69
2370.0,6.22,-2.89,11.61
2383.0,5.98,-2.67,11.22
2395.0,5.84,-2.12,10.28
2408.0,5.71,-1.46,9.23
2421.0,5.83,-0.78,8.68
2434.0,6.09,-0.41,8.94
2447.0,6.07,-0.52,9.42
2460.0,5.59,-1.03,9.77
2473.0,4.77,-1.61,9.81
2485.0,3.68,-2.03,9.75
2498.0,3.13,-2.4,9.81
2511.0,3.05,-2.6,10.06
2524.0,3.18,-2.69,10.28
2537.0,3.06,-2.89,10.45
2550.0,2.63,-3.2,10.7
2563.0,1.86,-3.4,10.61
2575.0,1.36,-3.31,10.27
2588.0,1.23,-3.03,9.94
2601.0,1.18,-2.95,9.99
2614.0,0.83,-3.1,9.94
2627.0,0.39,-3.05,9.47
2640.0,0.39,-3.0,9.61
2653.0,0.47,-3.01,9.87
2666.0,0.45,-2.8,9.79
2678.0,0.17,-2.62,9.6
2691.0,-0.38,-2.62,9.61
2704.0,-1.21,-2.73,9.75
2717.0,-1.82,-2.86,9.65
2730.0,-2.25,-3.2,11.04
2743.0,-3.08,-3.79,12.36
2756.0,-4.38,-3.79,11.55
2768.0,-5.42,-3.32,10.27
2781.0,-5.88,-2.68,9.21
2794.0,-5.85,-2.02,8.69
2807.0,-5.61,-1.47,8.6
2820.0,-5.48,-1.13,8.53
2833.0,-5.4,-1.09,9.07
2846.0,-5.61,-1.12,9.45
2859.0,-5.96,-1.12,9.42
2871.0,-6.23,-1.07,9.25
2884.0,-6.58,-1.06,9.04
2897.0,-7.1,-1.25,8.85
2910.0,-7.4,-1.51,9.05
2923.0,-7.31,-1.56,9.26
2936.0,-6.93,-1.43,9.49
2949.0,-6.4,-1.27,9.47
2962.0,-5.81,-1.15,9.84
2974.0,-5.38,-1.11,10.17
2987.0,-4.99,-1.08,10.19
3000.0,-4.56,-1.12,10.41
3013.0,-4.18,-1.11,10.44
3026.0,-3.86,-0.98,10.22
3039.0,-3.44,-0.75,9.86
3052.0,-3.1,-0.65,9.7
3065.0,-2.75,-0.81,10.13
3077.0,-2.63,-0.91,10.06
3090.0,-2.84,-0.85,9.4
3103.0,-3.2,-0.89,8.64
3116.0,-3.31,-1.13,8.45
3129.0,-2.95,-1.36,8.97
3142.0,-2.18,-1.57,9.84
3155.0,-1.49,-1.61,10.39
3168.0,-1.26,-1.67,10.43
3180.0,-1.22,-1.76,10.07
3193.0,-1.25,-1.81,9.7
3206.0,-1.35,-1.8,9.31
3219.0,-1.31,-1.68,8.67
3232.0,-0.95,-1.5,8.45
3245.0,-0.22,-1.39,8.41
3258.0,0.52,-1.54,8.85
3271.0,0.8,-1.83,9.08
3283.0,0.8,-2.26,9.27
3296.0,0.69,-2.41,8.97
3309.0,0.83,-2.54,8.85
3322.0,1.59,-2.46,8.63
3335.0,3.63,-2.23,8.66
3348.0,5.83,-1.72,10.35
3361.0,7.02,-1.56,11.85
3373.0,7.11,-1.96,12.47
3386.0,6.99,-2.52,12.73
3399.0,7.19,-2.78,12.6
3412.0,7.44,-2.5,11.71
3425.0,7.36,-2.18,10.68
3438.0,6.71,-2.72,11.06
3451.0,6.05,-3.79,11.96
3463.0,5.6,-4.63,12.4
3476.0,5.39,-4.77,12.44
3489.0,4.89,-4.37,11.87
3502.0,4.11,-3.83,11.11
3515.0,3.44,-3.16,10.17
3528.0,3.17,-2.64,9.74
3541.0,3.27,-2.29,9.89
3553.0,3.38,-2.28,9.83
3566.0,3.27,-2.41,9.79
3579.0,2.91,-2.91,10.05
3592.0,2.68,-3.29,10.61
3605.0,2.3,-3.53,10.75
3618.0,2.23,-3.57,10.96
3631.0,1.4,-3.63,10.91
3643.0,0.44,-3.44,10.05
3656.0,-0.06,-3.28,9.63
3669.0,-0.09,-3.19,9.56
3682.0,0.3,-2.69,9.25
3695.0,0.55,-2.08,8.72
3708.0,0.96,-1.71,8.68
3721.0,1.33,-1.54,9.38
3733.0,1.35,-1.63,10.2
3746.0,0.46,-1.67,10.12
3759.0,-0.61,-1.71,9.38
3772.0,-1.23,-1.7,9.43
3785.0,-1.51,-1.48,9.46
3798.0,-1.95,-1.4,9.65
3811.0,-2.35,-1.3,9.82
3824.0,-2.89,-1.0,9.47
3836.0,-3.48,-0.83,9.2
3849.0,-4.15,-0.84,8.95
3862.0,-4.99,-1.22,9.5
3875.0,-5.55,-1.61,10.07
3888.0,-6.09,-1.54,9.87
3901.0,-6.4,-1.16,9.31
3914.0,-6.26,-0.73,9.02
3927.0,-5.96,-0.39,8.97
3939.0,-5.58,-0.32,9.22
3952.0,-5.71,-0.44,9.62
3965.0,-6.05,-0.73,9.85
3978.0,-6.52,-0.96,9.72
3991.0,-6.98,-1.1,9.69
4004.0,-7.16,-1.18,9.67
4017.0,-6.86,-1.14,9.8
4030.0,-6.5,-1.0,10.01
4042.0,-6.06,-0.93,9.89
4055.0,-6.05,-0.97,10.21
4068.0,-5.91,-0.95,9.9
4081.0,-5.58,-0.8,9.53
4094.0,-5.07,-0.72,9.36
4107.0,-4.46,-0.81,9.84
4120.0,-4.12,-0.72,9.78
4133.0,-4.2,-0.73,9.29
4145.0,-4.22,-0.94,9.02
4158.0,-4.18,-1.28,9.35
4171.0,-4.11,-1.71,9.67
4184.0,-4.08,-2.08,10.0
4197.0,-3.99,-2.29,9.83
4210.0,-3.8,-2.23,9.29
4223.0,-3.28,-2.08,8.77
4236.0,-2.57,-2.04,8.82
4248.0,-1.96,-2.05,8.95
4261.0,-1.59,-2.17,9.0
4274.0,-1.34,-2.46,9.34
4287.0,-1.2,-2.73,9.79
4300.0,-0.91,-2.78,9.9
4313.0,-0.35,-2.55,9.72
4326.0,0.84,-2.13,9.54
4339.0,2.12,-1.73,9.61
4351.0,2.75,-1.79,10.24
4364.0,3.04,-2.27,11.03
4377.0,3.12,-2.84,11.76
4390.0,3.68,-3.4,12.77
4403.0,4.08,-3.57,13.11
4416.0,3.89,-3.06,12.15
4429.0,3.54,-2.58,10.78
4441.0,3.56,-2.3,10.02
4454.0,4.19,-2.26,10.08
4467.0,5.06,-2.39,11.2
4480.0,6.04,-2.51,12.04
4493.0,6.72,-2.35,12.02
4506.0,6.93,-2.11,11.7
4519.0,6.51,-1.89,10.95
4531.0,6.12,-1.83,10.28
4544.0,6.02,-1.74,9.83
4557.0,6.0,-1.55,9.58
4570.0,5.67,-1.39,9.43
4583.0,5.02,-1.31,8.85
4596.0,4.82,-1.11,8.74
4609.0,4.87,-1.0,9.06
4621.0,4.73,-1.19,9.47
4634.0,4.39,-1.52,9.65
4647.0,3.91,-1.84,9.6
4660.0,3.28,-2.22,9.8
4673.0,2.62,-2.53,9.9
4686.0,2.51,-2.59,9.82
4699.0,2.67,-2.37,9.54
4711.0,3.1,-2.07,9.27
4724.0,3.22,-2.07,9.74
4737.0,2.71,-2.29,10.03
4750.0,1.73,-2.62,10.09
4763.0,0.74,-3.1,9.93
4776.0,0.6,-3.25,9.8
4789.0,0.98,-2.97,9.75
4801.0,1.54,-2.83,10.07
4814.0,1.77,-3.03,11.05
4827.0,1.32,-3.2,11.35
4840.0,0.66,-3.25,11.15
4853.0,-0.17,-3.18,10.89
4866.0,-0.76,-2.92,10.48
4879.0,-1.22,-2.69,10.38
4891.0,-1.67,-2.52,10.43
4904.0,-2.22,-2.35,10.32
4917.0,-2.82,-2.07,10.04
4930.0,-3.21,-1.73,9.57
4943.0,-3.64,-1.39,9.22
4956.0,-3.97,-1.27,9.49
4969.0,-4.44,-1.23,9.69
4982.0,-5.11,-1.19,9.61
4994.0,-5.84,-1.13,9.23
5007.0,-6.49,-1.16,9.02
5020.0,-6.94,-1.22,8.71
5033.0,-7.01,-1.46,9.24
5046.0,-6.95,-1.75,10.23
5059.0,-6.92,-1.57,10.08
5072.0,-6.83,-1.0,9.02
5085.0,-6.7,-0.44,8.35
5097.0,-6.48,-0.15,8.08
5110.0,-6.31,-0.2,8.55
5123.0,-6.14,-0.54,9.18
5136.0,-5.88,-0.92,9.85
5149.0,-5.62,-1.13,10.21
5162.0,-5.45,-1.24,10.23
5175.0,-5.31,-1.22,10.06
5188.0,-5.12,-1.05,9.63
5200.0,-5.12,-0.96,9.09
5213.0,-5.21,-1.06,8.89
5226.0,-5.33,-1.31,9.02
5239.0,-5.26,-1.65,9.31
5252.0,-5.05,-1.9,9.58
5265.0,-4.72,-1.93,9.42
5278.0,-4.63,-1.91,9.2
5291.0,-4.86,-2.16,8.76
5303.0,-4.83,-2.69,8.74
5316.0,-4.11,-3.12,9.19
5329.0,-2.99,-3.2,9.77
5342.0,-1.83,-3.03,9.95
5355.0,-0.99,-2.67,9.79
5368.0,-0.28,-2.45,9.67
5381.0,0.25,-2.59,10.34
5394.0,0.72,-2.83,11.07
5406.0,1.22,-2.83,11.27
5419.0,1.93,-2.67,11.36
5432.0,2.68,-2.32,11.13
5445.0,3.62,-1.86,10.68
5458.0,4.17,-1.56,10.4
5471.0,4.29,-1.52,10.15
5484.0,3.72,-1.79,10.05
5496.0,3.05,-2.47,10.08
5509.0,3.18,-3.16,10.8
5522.0,4.23,-3.31,11.47
5535.0,5.57,-2.87,11.63
5548.0,6.44,-2.11,10.71
5561.0,6.42,-1.62,9.76
5574.0,6.31,-1.74,9.15
5586.0,5.94,-2.03,9.43
5599.0,6.01,-2.39,9.58
5612.0,6.12,-2.88,10.5
5625.0,6.1,-3.42,11.41
5638.0,5.59,-3.44,11.09
5651.0,4.88,-3.15,10.32
5664.0,4.73,-2.61,9.52
5676.0,4.72,-2.18,9.67
5689.0,4.77,-1.85,9.8
5702.0,4.69,-1.69,9.61
5715.0,4.32,-1.83,9.9
5728.0,4.07,-2.0,9.99
5741.0,4.02,-2.04,9.97
5754.0,3.99,-2.04,9.73
5766.0,3.46,-2.12,9.6
5779.0,2.76,-2.44,9.74
5792.0,2.26,-2.71,10.13
5805.0,1.93,-2.83,10.16
5818.0,1.86,-2.89,9.97
5831.0,1.92,-3.11,10.42
5844.0,1.79,-3.5,10.99
5856.0,1.37,-3.78,11.36
5869.0,0.53,-3.74,11.06
5882.0,-0.36,-3.47,10.31
5895.0,-1.32,-3.31,10.04
5908.0,-2.15,-3.13,10.27
5921.0,-2.87,-2.8,9.94
5934.0,-2.9,-2.55,9.86
5946.0,-2.48,-2.47,10.78
5959.0,-2.69,-2.51,11.53
5972.0,-3.53,-2.46,11.17
5985.0,-4.59,-2.22,9.89
5998.0,-5.24,-1.85,9.02
6011.0,-5.4,-1.54,8.84
6024.0,-5.13,-1.14,9.0
6037.0,-4.91,-0.67,9.06
6049.0,-4.84,-0.6,9.49
6062.0,-5.02,-0.66,9.81
6075.0,-5.48,-0.67,9.55
6088.0,-6.2,-0.71,9.01
6101.0,-6.86,-0.68,8.43
6114.0,-7.29,-0.59,8.09
6127.0,-7.22,-0.45,7.86
6140.0,-6.74,-0.32,8.39
6152.0,-6.35,-0.15,8.71
6165.0,-6.15,-0.02,8.54
6178.0,-5.94,-0.03,8.6
6191.0,-5.73,-0.22,8.91
6204.0,-5.5,-0.45,9.1
6217.0,-5.18,-0.62,9.26
6230.0,-4.61,-0.78,9.81
6243.0,-4.15,-0.91,10.42
6255.0,-4.07,-1.03,10.36
6268.0,-4.09,-1.05,9.91
6281.0,-3.78,-1.0,9.72
6294.0,-3.4,-0.86,9.78
6307.0,-3.17,-0.86,9.51
6320.0,-2.99,-0.99,9.57
6333.0,-2.66,-1.23,9.85
6346.0,-2.58,-1.52,10.17
6358.0,-2.69,-1.81,9.78
6371.0,-2.73,-1.86,9.47
6384.0,-2.49,-1.97,9.34
6397.0,-1.91,-2.2,9.56
6410.0,-1.35,-2.62,10.21
6423.0,-1.08,-3.15,10.71
6436.0,-1.02,-3.42,10.62
6449.0,-0.8,-3.58,10.47
6461.0,-0.39,-3.57,10.6
6474.0,0.46,-3.42,10.58
6487.0,1.38,-3.04,10.46
6500.0,2.1,-2.67,9.99
6513.0,2.43,-2.46,9.75
6526.0,3.41,-2.19,9.0
6539.0,4.09,-2.12,9.53
6551.0,4.78,-2.58,10.81
6564.0,5.3,-3.22,12.09
6577.0,5.21,-3.23,11.84
6590.0,5.01,-3.03,11.27
6603.0,4.72,-2.44,9.64
6616.0,5.2,-2.09,9.23
6629.0,6.11,-2.12,10.03
6641.0,6.41,-2.16,10.64
6654.0,5.89,-2.24,10.48
6667.0,5.22,-2.42,10.19
6680.0,4.69,-2.6,10.18
6693.0,4.47,-2.67,10.39
6706.0,4.49,-2.46,10.4
6719.0,4.75,-2.07,10.11
6731.0,5.35,-1.73,10.05
6744.0,5.93,-1.86,10.79
6757.0,5.99,-2.48,11.78
6770.0,5.23,-3.29,12.31
6783.0,3.7,-3.79,11.89
6796.0,2.74,-3.96,11.26
6809.0,2.7,-3.78,10.98
6821.0,2.75,-3.37,10.46
6834.0,2.46,-3.12,9.77
6847.0,1.97,-3.12,9.57
6860.0,1.12,-3.25,9.91
6873.0,0.46,-3.37,10.04
6886.0,-0.08,-3.53,9.93
6899.0,-0.46,-3.43,9.3
6912.0,-0.17,-3.03,8.86
6924.0,0.51,-2.71,9.43
6937.0,0.83,-2.35,9.92
6950.0,-0.02,-2.22,9.88
6963.0,-1.43,-2.28,8.91
6976.0,-2.1,-2.18,8.69
6989.0,-2.25,-1.87,8.94
7002.0,-2.42,-1.67,9.07
7014.0,-2.91,-1.61,9.06
7027.0,-3.41,-1.45,8.74
7040.0,-3.65,-1.49,8.97
7053.0,-3.77,-2.03,10.26
7066.0,-4.38,-2.48,11.03
7079.0,-5.37,-2.48,10.27
7092.0,-5.9,-2.33,9.6
7105.0,-5.82,-2.16,9.72
7117.0,-5.51,-1.9,9.99
7130.0,-5.38,-1.7,10.22
7143.0,-5.42,-1.64,10.29
7156.0,-5.67,-1.57,10.3
7169.0,-5.96,-1.44,10.16
7182.0,-6.24,-1.31,10.01
7195.0,-6.35,-1.02,9.81
7208.0,-6.42,-0.59,9.17
7220.0,-6.37,-0.29,8.72
7233.0,-6.37,-0.29,8.63
7246.0,-6.2,-0.43,8.77
7257.0,0.0,-66.08,16.55
7270.0,0.0,0.0,0.0
7283.0,0.0,0.0,0.0
7296.0,0.0,0.0,0.0
7308.0,0.0,0.0,0.0
7321.0,0.0,0.0,0.0
7334.0,0.0,0.0,0.0
7347.0,0.0,0.0,0.0
7360.0,0.0,0.0,0.0
7373.0,0.0,0.0,0.0
7385.0,0.0,0.0,0.0
7398.0,0.0,0.0,0.0
7411.0,0.0,0.0,0.0
7424.0,0.0,0.0,0.0
7437.0,0.0,0.0,0.0
7450.0,0.0,0.0,0.0
7462.0,0.0,0.0,0.0
7475.0,0.0,0.0,0.0
7488.0,0.0,0.0,0.0
7501.0,0.0,0.0,0.0
7514.0,0.0,0.0,0.0
7527.0,0.0,0.0,0.0
7539.0,0.0,0.0,0.0
7552.0,0.0,0.0,0.0
7565.0,0.0,0.0,0.0
7578.0,0.0,0.0,0.0
7591.0,0.0,0.0,0.0
7604.0,0.0,0.0,0.0
7616.0,0.0,0.0,0.0
7629.0,0.0,0.0,0.0
7642.0,0.0,0.0,0.0
7655.0,0.0,0.0,0.0
7668.0,0.0,0.0,0.0
7681.0,0.0,0.0,0.0
7694.0,0.0,0.0,0.0
7706.0,0.0,0.0,0.0
7719.0,0.0,0.0,0.0
7732.0,0.0,0.0,0.0
7745.0,0.0,0.0,0.0
7758.0,0.0,0.0,0.0
7771.0,0.0,0.0,0.0
7783.0,0.0,0.0,0.0
7796.0,0.0,0.0,0.0
7809.0,0.0,0.0,0.0
7822.0,0.0,0.0,0.0
7835.0,0.0,0.0,0.0
7848.0,0.0,0.0,0.0
7860.0,0.0,0.0,0.0
7873.0,0.0,0.0,0.0
7886.0,0.0,0.0,0.0
7899.0,0.0,0.0,0.0
7912.0,0.0,0.0,0.0
7925.0,0.0,0.0,0.0
7937.0,0.0,0.0,0.0
7950.0,0.0,0.0,0.0
7963.0,0.0,0.0,0.0
7976.0,0.0,0.0,0.0
7989.0,0.0,0.0,0.0
8002.0,0.0,0.0,0.0
8014.0,0.0,0.0,0.0
8027.0,0.0,0.0,0.0
8040.0,0.0,0.0,0.0
8053.0,0.0,0.0,0.0
8066.0,0.0,0.0,0.0
8079.0,0.0,0.0,0.0
8091.0,0.0,0.0,0.0
8104.0,0.0,0.0,0.0
8117.0,0.0,0.0,0.0
8130.0,0.0,0.0,0.0
8143.0,0.0,0.0,0.0
8156.0,0.0,0.0,0.0
8169.0,0.0,0.0,0.0
8181.0,0.0,0.0,0.0
8194.0,0.0,0.0,0.0
8207.0,0.0,0.0,0.0
8220.0,0.0,0.0,0.0
8233.0,0.0,0.0,0.0
8246.0,0.0,0.0,0.0
8258.0,0.0,0.0,0.0
8271.0,0.0,0.0,0.0
8284.0,0.0,0.0,0.0
8297.0,0.0,0.0,0.0
8310.0,0.0,0.0,0.0
8323.0,0.0,0.0,0.0
8335.0,0.0,0.0,0.0
8348.0,0.0,0.0,0.0
8361.0,0.0,0.0,0.0
8374.0,0.0,0.0,0.0
8387.0,0.0,0.0,0.0
8400.0,0.0,0.0,0.0
8412.0,0.0,0.0,0.0
8425.0,0.0,0.0,0.0
8438.0,0.0,0.0,0.0
8451.0,0.0,0.0,0.0
8464.0,0.0,0.0,0.0
8477.0,0.0,0.0,0.0
8489.0,0.0,0.0,0.0
8502.0,0.0,0.0,0.0
8515.0,0.0,0.0,0.0
8528.0,0.0,0.0,0.0
8541.0,0.0,0.0,0.0
8554.0,0.0,0.0,0.0
8566.0,0.0,0.0,0.0
8579.0,0.0,0.0,0.0
8592.0,0.0,0.0,0.0
8605.0,0.0,0.0,0.0
8618.0,0.0,0.0,0.0
8631.0,0.0,0.0,0.0
8644.0,0.0,0.0,0.0
8656.0,0.0,0.0,0.0
8669.0,0.0,0.0,0.0
8682.0,0.0,0.0,0.0
8695.0,0.0,0.0,0.0
8708.0,0.0,0.0,0.0
8721.0,0.0,0.0,0.0
8733.0,0.0,0.0,0.0
8746.0,0.0,0.0,0.0
8759.0,0.0,0.0,0.0
8772.0,0.0,0.0,0.0
8785.0,0.0,0.0,0.0
8798.0,0.0,0.0,0.0
8810.0,0.0,0.0,0.0
8823.0,0.0,0.0,0.0
8836.0,0.0,0.0,0.0
8849.0,0.0,0.0,0.0
8862.0,0.0,0.0,0.0
8875.0,0.0,0.0,0.0
8887.0,0.0,0.0,0.0
8900.0,0.0,0.0,0.0
8913.0,0.0,0.0,0.0
8926.0,0.0,0.0,0.0
8939.0,0.0,0.0,0.0
8952.0,0.0,0.0,0.0
8964.0,0.0,0.0,0.0
8977.0,0.0,0.0,0.0
8990.0,0.0,0.0,0.0
9003.0,0.0,0.0,0.0
9016.0,0.0,0.0,0.0
9029.0,0.0,0.0,0.0
9041.0,0.0,0.0,0.0
9054.0,0.0,0.0,0.0
9067.0,0.0,0.0,0.0
9080.0,0.0,0.0,0.0
9093.0,0.0,0.0,0.0
9106.0,0.0,0.0,0.0
9119.0,0.0,0.0,0.0
9131.0,0.0,0.0,0.0
9144.0,0.0,0.0,0.0
9157.0,0.0,0.0,0.0
9170.0,0.0,0.0,0.0
9183.0,0.0,0.0,0.0
9196.0,0.0,0.0,0.0
9208.0,0.0,0.0,0.0
9221.0,0.0,0.0,0.0
9234.0,0.0,0.0,0.0
9247.0,0.0,0.0,0.0
9260.0,0.0,0.0,0.0
9273.0,0.0,0.0,0.0
9285.0,0.0,0.0,0.0
9298.0,0.0,0.0,0.0
9311.0,0.0,0.0,0.0
9324.0,0.0,0.0,0.0
9337.0,0.0,0.0,0.0
9350.0,0.0,0.0,0.0
9362.0,0.0,0.0,0.0
9375.0,0.0,0.0,0.0
9388.0,0.0,0.0,0.0
9401.0,0.0,0.0,0.0
9414.0,0.0,0.0,0.0
9427.0,0.0,0.0,0.0
9439.0,0.0,0.0,0.0
9452.0,0.0,0.0,0.0
9465.0,0.0,0.0,0.0
9478.0,0.0,0.0,0.0
9491.0,0.0,0.0,0.0
9504.0,0.0,0.0,0.0
9516.0,0.0,0.0,0.0
9529.0,0.0,0.0,0.0
9542.0,0.0,0.0,0.0
9555.0,0.0,0.0,0.0
9568.0,0.0,0.0,0.0
9581.0,0.0,0.0,0.0
9594.0,0.0,0.0,0.0
9606.0,0.0,0.0,0.0
9619.0,0.0,0.0,0.0
9632.0,0.0,0.0,0.0
9645.0,0.0,0.0,0.0
9658.0,0.0,0.0,0.0
9671.0,0.0,0.0,0.0
9683.0,0.0,0.0,0.0
9696.0,0.0,0.0,0.0
9709.0,0.0,0.0,0.0
9722.0,0.0,0.0,0.0
9735.0,0.0,0.0,0.0
9748.0,0.0,0.0,0.0
9760.0,0.0,0.0,0.0
9773.0,0.0,0.0,0.0
9786.0,0.0,0.0,0.0
9799.0,0.0,0.0,0.0
9812.0,0.0,0.0,0.0
9825.0,0.0,0.0,0.0
9837.0,0.0,0.0,0.0
9850.0,0.0,0.0,0.0
9863.0,0.0,0.0,0.0
9876.0,0.0,0.0,0.0
9889.0,0.0,0.0,0.0
9902.0,0.0,0.0,0.0
9914.0,0.0,0.0,0.0
9927.0,0.0,0.0,0.0
9940.0,0.0,0.0,0.0
9953.0,0.0,0.0,0.0
9966.0,0.0,0.0,0.0
9979.0,0.0,0.0,0.0
9991.0,0.0,0.0,0.0
10004.0,0.0,0.0,0.0
10017.0,0.0,0.0,0.0
10030.0,0.0,0.0,0.0
10043.0,0.0,0.0,0.0
10056.0,0.0,0.0,0.0
10069.0,0.0,0.0,0.0
10081.0,0.0,0.0,0.0
10094.0,0.0,0.0,0.0
10107.0,0.0,0.0,0.0
10120.0,0.0,0.0,0.0
10133.0,0.0,0.0,0.0
10146.0,0.0,0.0,0.0
10158.0,0.0,0.0,0.0
10171.0,0.0,0.0,0.0
10184.0,0.0,0.0,0.0
10197.0,0.0,0.0,0.0
10210.0,0.0,0.0,0.0
10223.0,0.0,0.0,0.0
10235.0,0.0,0.0,0.0
10248.0,0.0,0.0,0.0
10261.0,0.0,0.0,0.0
10274.0,0.0,0.0,0.0
10287.0,0.0,0.0,0.0
10300.0,0.0,0.0,0.0
10312.0,0.0,0.0,0.0
10325.0,0.0,0.0,0.0
10338.0,0.0,0.0,0.0
10351.0,0.0,0.0,0.0
10364.0,0.0,0.0,0.0
10377.0,0.0,0.0,0.0
10389.0,0.0,0.0,0.0
10402.0,0.0,0.0,0.0
10415.0,0.0,0.0,0.0
10428.0,0.0,0.0,0.0
10441.0,0.0,0.0,0.0
10454.0,0.0,0.0,0.0
10466.0,0.0,0.0,0.0
10479.0,0.0,0.0,0.0
10492.0,0.0,0.0,0.0
10505.0,0.0,0.0,0.0
10518.0,0.0,0.0,0.0
10531.0,0.0,0.0,0.0
10544.0,0.0,0.0,0.0
10556.0,0.0,0.0,0.0
10569.0,0.0,0.0,0.0
10582.0,0.0,0.0,0.0
10595.0,0.0,0.0,0.0
10608.0,0.0,0.0,0.0
10621.0,0.0,0.0,0.0
10633.0,0.0,0.0,0.0
10646.0,0.0,0.0,0.0
10659.0,0.0,0.0,0.0
10672.0,0.0,0.0,0.0
10685.0,0.0,0.0,0.0
10698.0,0.0,0.0,0.0
10710.0,0.0,0.0,0.0
10723.0,0.0,0.0,0.0
10736.0,0.0,0.0,0.0
10749.0,0.0,0.0,0.0
10762.0,0.0,0.0,0.0
10775.0,0.0,0.0,0.0
10787.0,0.0,0.0,0.0
10800.0,0.0,0.0,0.0
10813.0,0.0,0.0,0.0
10826.0,0.0,0.0,0.0
10839.0,0.0,0.0,0.0
10852.0,0.0,0.0,0.0
10864.0,0.0,0.0,0.0
10877.0,0.0,0.0,0.0
10890.0,0.0,0.0,0.0
10903.0,0.0,0.0,0.0
10916.0,0.0,0.0,0.0
10929.0,0.0,0.0,0.0
10941.0,0.0,0.0,0.0
10954.0,0.0,0.0,0.0
10967.0,0.0,0.0,0.0
10980.0,0.0,0.0,0.0
10993.0,0.0,0.0,0.0
11006.0,0.0,0.0,0.0
11019.0,0.0,0.0,0.0
11031.0,0.0,0.0,0.0
11044.0,0.0,0.0,0.0
11057.0,0.0,0.0,0.0
11070.0,0.0,0.0,0.0
11083.0,0.0,0.0,0.0
11096.0,0.0,0.0,0.0
11108.0,0.0,0.0,0.0
11121.0,0.0,0.0,0.0
11134.0,0.0,0.0,0.0
11147.0,0.0,0.0,0.0
11160.0,0.0,0.0,0.0
11173.0,0.0,0.0,0.0
11185.0,0.0,0.0,0.0
11198.0,0.0,0.0,0.0
11211.0,0.0,0.0,0.0
11224.0,0.0,0.0,0.0
11237.0,0.0,0.0,0.0
11250.0,0.0,0.0,0.0
11262.0,0.0,0.0,0.0
11275.0,0.0,0.0,0.0
11288.0,0.0,0.0,0.0
11301.0,0.0,0.0,0.0
11314.0,0.0,0.0,0.0
11327.0,0.0,0.0,0.0
11339.0,0.0,0.0,0.0
11352.0,0.0,0.0,0.0
11365.0,0.0,0.0,0.0
11378.0,0.0,0.0,0.0
11391.0,0.0,0.0,0.0
11404.0,0.0,0.0,0.0
11416.0,0.0,0.0,0.0
11429.0,0.0,0.0,0.0
11442.0,0.0,0.0,0.0
11455.0,0.0,0.0,0.0
11468.0,0.0,0.0,0.0
11481.0,0.0,0.0,0.0
11494.0,0.0,0.0,0.0
11506.0,0.0,0.0,0.0
11519.0,0.0,0.0,0.0
11532.0,0.0,0.0,0.0
11545.0,0.0,0.0,0.0
11558.0,0.0,0.0,0.0
11571.0,0.0,0.0,0.0
11583.0,0.0,0.0,0.0
11596.0,0.0,0.0,0.0
11609.0,0.0,0.0,0.0
11622.0,0.0,0.0,0.0
11635.0,0.0,0.0,0.0
11648.0,0.0,0.0,0.0
11660.0,0.0,0.0,0.0
11673.0,0.0,0.0,0.0
11686.0,0.0,0.0,0.0
11699.0,0.0,0.0,0.0
11712.0,0.0,0.0,0.0
11725.0,0.0,0.0,0.0
11737.0,0.0,0.0,0.0
11750.0,0.0,0.0,0.0
11763.0,0.0,0.0,0.0
11776.0,0.0,0.0,0.0
11789.0,0.0,0.0,0.0
11802.0,0.0,0.0,0.0
11814.0,0.0,0.0,0.0
11827.0,0.0,0.0,0.0
11840.0,0.0,0.0,0.0
11853.0,0.0,0.0,0.0
11866.0,0.0,0.0,0.0
11879.0,0.0,0.0,0.0
11891.0,0.0,0.0,0.0
11904.0,0.0,0.0,0.0
11917.0,0.0,0.0,0.0
11930.0,0.0,0.0,0.0
11943.0,0.0,0.0,0.0
11956.0,0.0,0.0,0.0
11969.0,0.0,0.0,0.0
11981.0,0.0,0.0,0.0
11994.0,0.0,0.0,0.0
12007.0,0.0,0.0,0.0
12020.0,0.0,0.0,0.0
12033.0,0.0,0.0,0.0
12046.0,0.0,0.0,0.0
12058.0,0.0,0.0,0.0
12071.0,0.0,0.0,0.0
12084.0,0.0,0.0,0.0
12097.0,0.0,0.0,0.0
12110.0,0.0,0.0,0.0
12123.0,0.0,0.0,0.0
12135.0,0.0,0.0,0.0
12148.0,0.0,0.0,0.0
12161.0,0.0,0.0,0.0
12174.0,0.0,0.0,0.0
12187.0,0.0,0.0,0.0
12200.0,0.0,0.0,0.0
12212.0,0.0,0.0,0.0
12225.0,0.0,0.0,0.0
12238.0,0.0,0.0,0.0
12251.0,0.0,0.0,0.0
12264.0,0.0,0.0,0.0
12277.0,0.0,0.0,0.0
12289.0,0.0,0.0,0.0
12302.0,0.0,0.0,0.0
12315.0,0.0,0.0,0.0
12328.0,0.0,0.0,0.0
12341.0,0.0,0.0,0.0
12354.0,0.0,0.0,0.0
12366.0,0.0,0.0,0.0
12379.0,0.0,0.0,0.0
12392.0,0.0,0.0,0.0
12405.0,0.0,0.0,0.0
12418.0,0.0,0.0,0.0
12431.0,0.0,0.0,0.0
12444.0,0.0,0.0,0.0
12456.0,0.0,0.0,0.0
12469.0,0.0,0.0,0.0
12482.0,0.0,0.0,0.0
12495.0,0.0,0.0,0.0
12508.0,0.0,0.0,0.0
12521.0,0.0,0.0,0.0
12533.0,0.0,0.0,0.0
12546.0,0.0,0.0,0.0
12559.0,0.0,0.0,0.0
12572.0,0.0,0.0,0.0
12585.0,0.0,0.0,0.0
12598.0,0.0,0.0,0.0
12610.0,0.0,0.0,0.0
12623.0,0.0,0.0,0.0
12636.0,0.0,0.0,0.0
12649.0,0.0,0.0,0.0
12662.0,0.0,0.0,0.0
12675.0,0.0,0.0,0.0
12687.0,0.0,0.0,0.0
12700.0,0.0,0.0,0.0
12713.0,0.0,0.0,0.0
12726.0,0.0,0.0,0.0
12739.0,0.0,0.0,0.0
12752.0,0.0,0.0,0.0
12764.0,0.0,0.0,0.0
12777.0,0.0,0.0,0.0
12790.0,0.0,0.0,0.0
12803.0,0.0,0.0,0.0
12816.0,0.0,0.0,0.0
12829.0,0.0,0.0,0.0
12841.0,0.0,0.0,0.0
