timestamp,accX,accY,accZ
2.0,-2.54,-2.47,9.49
15.0,-2.09,-1.89,7.76
28.0,-2.58,-2.05,9.27
41.0,-2.8,-1.78,9.12
54.0,-3.16,-1.68,8.92
67.0,-3.62,-1.71,8.87
79.0,-4.22,-1.79,8.71
92.0,-4.62,-1.72,8.51
105.0,-4.66,-1.64,8.79
118.0,-4.68,-1.48,8.88
131.0,-4.68,-1.37,8.89
144.0,-4.57,-1.23,8.87
157.0,-4.3,-1.06,8.85
170.0,-3.98,-0.93,8.99
182.0,-3.76,-0.74,9.06
195.0,-3.54,-0.61,9.19
208.0,-3.43,-0.62,9.39
221.0,-3.57,-0.76,9.56
234.0,-3.9,-1.02,9.69
247.0,-4.2,-1.28,9.76
260.0,-4.4,-1.38,9.49
273.0,-4.34,-1.26,9.12
285.0,-4.03,-1.03,8.98
298.0,-3.59,-0.94,9.21
311.0,-3.17,-0.93,9.48
324.0,-2.87,-0.88,9.47
337.0,-2.71,-0.9,9.64
350.0,-2.66,-1.07,9.97
363.0,-2.71,-1.21,9.93
376.0,-2.8,-1.25,9.63
388.0,-2.68,-1.16,9.36
401.0,-2.24,-1.07,9.5
414.0,-1.65,-1.02,9.98
427.0,-1.22,-0.93,10.12
440.0,-1.18,-1.06,10.37
453.0,-1.51,-1.11,9.9
466.0,-2.16,-1.2,9.01
479.0,-2.65,-1.36,8.79
491.0,-2.49,-1.87,9.91
504.0,-2.01,-2.3,11.4
517.0,-1.57,-2.45,12.16
530.0,-1.32,-2.29,11.93
543.0,-1.24,-1.94,11.03
556.0,-1.33,-1.6,10.09
569.0,-1.67,-1.58,9.56
582.0,-1.97,-1.87,9.58
594.0,-2.16,-2.1,9.72
607.0,-2.01,-2.29,10.2
620.0,-1.71,-2.41,10.6
633.0,-1.38,-2.53,10.62
646.0,-1.05,-2.66,10.53
659.0,-0.96,-2.68,10.39
672.0,-1.17,-2.63,10.02
685.0,-1.52,-2.62,9.39
697.0,-1.56,-2.68,9.23
710.0,-0.9,-2.7,9.8
723.0,0.19,-2.63,10.55
736.0,1.24,-2.58,11.29
749.0,2.12,-2.62,11.63
762.0,2.49,-2.45,11.15
775.0,2.6,-2.05,10.48
787.0,2.58,-1.66,9.87
800.0,2.57,-1.4,9.42
813.0,3.0,-1.11,9.46
826.0,3.15,-0.9,9.38
839.0,3.21,-1.25,9.88
852.0,2.91,-1.88,10.49
865.0,2.54,-2.33,10.7
877.0,2.26,-2.37,10.65
890.0,2.17,-2.03,10.25
903.0,2.38,-1.51,9.7
916.0,2.51,-1.08,9.13
929.0,2.38,-1.06,9.14
942.0,2.03,-1.56,9.88
955.0,1.45,-2.29,10.67
967.0,0.85,-2.69,10.77
980.0,0.3,-2.76,10.25
993.0,-0.01,-2.52,9.64
1006.0,-0.14,-2.07,9.21
1019.0,-0.09,-1.63,8.94
1032.0,0.01,-1.37,9.03
1045.0,0.24,-1.26,9.33
1058.0,0.56,-1.3,9.73
1070.0,0.87,-1.36,10.23
1083.0,1.0,-1.45,10.42
1096.0,0.81,-1.44,10.36
1109.0,0.56,-1.54,10.33
1122.0,0.41,-1.62,10.19
1135.0,0.21,-1.63,9.91
1148.0,0.09,-1.53,9.29
1160.0,0.13,-1.49,8.99
1173.0,0.11,-1.67,9.15
1186.0,-0.01,-2.09,9.83
1199.0,-0.22,-2.52,10.24
1212.0,-0.52,-2.77,10.29
1225.0,-0.54,-2.82,10.13
1238.0,-0.26,-2.62,9.91
1250.0,0.21,-2.27,9.52
1263.0,0.68,-1.97,9.23
1276.0,1.19,-1.81,9.19
1289.0,1.52,-1.72,9.38
1302.0,1.58,-1.7,9.62
1315.0,1.26,-1.81,9.86
1328.0,0.72,-2.05,10.01
1340.0,0.31,-2.29,9.96
1353.0,0.15,-2.43,9.89
1366.0,-0.0,-2.46,9.74
1379.0,-0.26,-2.33,9.52
1392.0,-0.46,-2.24,9.44
1405.0,-0.65,-2.18,9.45
1418.0,-0.71,-2.25,9.77
1431.0,-0.81,-2.4,10.23
1443.0,-0.92,-2.67,10.68
1456.0,-1.16,-3.0,11.22
1469.0,-1.76,-3.03,11.13
1482.0,-2.57,-2.75,10.37
1495.0,-3.1,-2.33,9.75
1508.0,-3.24,-2.13,9.99
1521.0,-3.2,-2.07,10.41
1534.0,-3.3,-2.1,10.62
1546.0,-3.37,-2.05,10.38
1559.0,-3.59,-1.92,9.87
1572.0,-3.64,-1.73,9.3
1585.0,-3.31,-1.56,9.36
1598.0,-2.84,-1.41,9.63
1611.0,-2.46,-1.26,9.7
1624.0,-2.3,-1.11,9.52
1637.0,-2.37,-1.17,9.53
1649.0,-2.59,-1.5,9.87
1662.0,-2.8,-1.9,10.3
1675.0,-3.19,-2.05,10.22
1688.0,-3.58,-1.98,9.74
1701.0,-3.8,-1.79,9.21
1714.0,-3.76,-1.61,9.0
1727.0,-3.66,-1.45,8.88
1740.0,-3.6,-1.4,8.95
1752.0,-3.62,-1.38,8.99
1765.0,-3.76,-1.42,8.96
1778.0,-3.91,-1.54,8.99
1791.0,-4.05,-1.61,8.86
1804.0,-4.06,-1.64,8.96
1817.0,-3.94,-1.74,9.15
1830.0,-3.72,-1.78,9.3
1843.0,-3.54,-1.81,9.52
1855.0,-3.46,-1.84,9.62
1868.0,-3.41,-1.84,9.52
1881.0,-3.32,-1.71,9.21
1894.0,-3.04,-1.59,8.91
1907.0,-2.55,-1.4,8.94
1920.0,-2.08,-1.23,8.98
1933.0,-1.82,-1.15,8.95
1946.0,-1.69,-1.24,9.0
1958.0,-1.52,-1.35,8.88
1971.0,-1.33,-1.62,9.32
1984.0,-1.15,-2.04,9.77
1997.0,-1.2,-2.41,9.84
2010.0,-1.53,-2.55,9.62
2023.0,-1.92,-2.71,9.43
2036.0,-2.07,-2.87,9.56
2049.0,-1.72,-2.94,10.12
2061.0,-1.29,-2.74,10.56
2074.0,-1.15,-2.58,10.77
2087.0,-1.24,-2.53,10.56
2100.0,-1.52,-2.57,10.39
2113.0,-1.98,-2.69,10.1
2126.0,-2.57,-2.79,9.82
2139.0,-2.65,-2.83,10.19
2152.0,-2.38,-2.93,11.39
2164.0,-1.75,-2.74,11.91
2177.0,-1.07,-2.28,11.51
2190.0,-0.97,-1.98,10.8
2203.0,-1.4,-2.05,10.46
2216.0,-1.77,-2.28,10.61
2229.0,-1.48,-2.52,11.08
2242.0,-0.25,-2.34,11.07
2255.0,1.11,-1.67,10.29
2267.0,1.81,-1.18,9.51
2280.0,1.6,-1.28,8.94
2293.0,0.76,-1.82,8.99
2306.0,0.19,-2.18,9.48
2319.0,0.26,-2.4,10.27
2332.0,0.87,-2.26,10.65
2345.0,1.57,-1.93,10.53
2357.0,2.14,-1.55,9.89
2370.0,2.39,-1.27,9.39
2383.0,2.32,-1.23,9.21
2396.0,2.18,-1.39,9.54
2409.0,1.97,-1.78,10.17
2422.0,1.74,-2.21,10.57
2435.0,1.58,-2.4,10.55
2447.0,1.65,-2.35,10.16
2460.0,1.93,-2.14,9.76
2473.0,2.2,-1.99,9.54
2486.0,2.35,-2.05,9.65
2499.0,2.32,-2.29,9.91
2512.0,2.31,-2.52,10.14
2525.0,2.28,-2.58,10.04
2537.0,2.27,-2.25,9.58
2550.0,2.37,-1.72,9.03
2563.0,2.56,-1.29,8.87
2576.0,2.67,-1.08,9.03
2589.0,2.71,-0.96,9.14
2602.0,2.54,-0.95,9.13
2615.0,2.13,-1.07,9.18
2627.0,1.82,-1.2,9.37
2640.0,1.93,-1.29,9.84
2653.0,2.16,-1.4,10.28
2666.0,2.34,-1.59,10.51
2679.0,2.47,-1.92,10.87
2692.0,2.39,-2.18,10.87
2705.0,2.11,-2.15,10.6
2717.0,1.73,-1.92,10.4
2730.0,1.35,-1.69,9.97
2743.0,1.33,-1.52,9.54
2756.0,1.2,-1.62,9.6
2769.0,0.68,-1.98,9.97
2782.0,0.13,-2.58,10.45
2795.0,-0.19,-3.08,10.88
2807.0,-0.33,-3.39,11.23
2820.0,-0.19,-3.47,11.19
2833.0,-0.12,-3.22,10.86
2846.0,-0.13,-2.74,10.05
2859.0,0.02,-2.31,9.36
2872.0,0.23,-1.97,9.18
2885.0,0.25,-1.82,9.17
2897.0,-0.34,-1.87,9.14
2910.0,-1.08,-2.15,9.04
2923.0,-1.46,-2.25,9.05
2936.0,-1.35,-2.15,9.13
2949.0,-1.16,-1.97,9.24
2962.0,-1.06,-1.84,9.3
2975.0,-1.19,-1.87,9.51
2988.0,-1.51,-2.0,9.8
3000.0,-1.77,-2.08,10.06
3013.0,-1.93,-2.1,10.17
3026.0,-2.1,-1.97,9.89
3039.0,-2.14,-1.73,9.52
3052.0,-2.05,-1.37,8.97
3065.0,-2.07,-0.99,8.45
3078.0,-2.2,-0.88,8.34
3091.0,-2.26,-1.01,8.82
3103.0,-2.4,-1.38,9.62
3116.0,-2.83,-1.85,10.21
3129.0,-3.09,-2.23,10.54
3142.0,-3.19,-2.1,10.15
3155.0,-3.15,-1.75,9.81
3168.0,-2.89,-1.53,9.95
3181.0,-2.66,-1.39,10.17
3194.0,-2.58,-1.2,10.2
3206.0,-2.62,-1.03,10.15
3219.0,-2.9,-1.02,10.2
3232.0,-3.33,-1.21,10.41
3245.0,-3.81,-1.55,10.67
3258.0,-4.22,-1.73,10.66
3271.0,-4.5,-1.86,10.86
3284.0,-4.75,-1.99,11.13
3297.0,-5.14,-2.04,10.97
3309.0,-5.68,-1.98,10.35
3322.0,-6.04,-1.78,9.61
3335.0,-5.94,-1.61,9.44
3348.0,-5.33,-1.41,9.89
3361.0,-4.75,-1.05,9.83
3374.0,-4.01,-0.89,9.96
3387.0,-3.6,-0.71,9.79
3400.0,-3.62,-0.55,9.07
3412.0,-4.03,-0.44,7.92
3425.0,-4.59,-0.45,6.87
3438.0,-4.99,-0.6,6.37
3451.0,-5.4,-0.89,6.47
3464.0,-5.45,-1.49,7.3
3477.0,-4.86,-2.19,8.89
3490.0,-3.87,-2.5,9.95
3503.0,-2.53,-2.33,10.15
3515.0,-1.42,-1.88,10.09
3528.0,-0.86,-1.22,9.63
3541.0,-0.89,-0.98,8.83
3554.0,-1.36,-1.05,7.99
3567.0,-2.02,-1.47,7.61
3580.0,-2.49,-2.23,8.08
3593.0,-2.43,-3.0,9.07
3606.0,-1.85,-3.42,10.23
3618.0,-1.16,-3.43,11.18
3631.0,-0.5,-3.15,11.12
3644.0,0.16,-2.78,10.64
3657.0,0.57,-2.32,10.1
3670.0,0.93,-1.96,9.83
3683.0,1.49,-1.71,10.36
3696.0,2.01,-1.59,10.99
3709.0,2.15,-1.56,11.28
3721.0,1.99,-1.67,11.22
3734.0,1.68,-1.74,10.89
3747.0,1.41,-1.62,10.17
3760.0,1.4,-1.52,9.86
3773.0,1.6,-1.42,10.1
3786.0,1.5,-1.28,10.2
3799.0,1.54,-1.09,10.04
3811.0,1.69,-1.02,10.01
3824.0,2.07,-1.18,10.24
3837.0,1.94,-1.46,10.58
3850.0,1.32,-1.83,10.6
3863.0,0.51,-2.22,10.39
3876.0,0.01,-2.4,10.14
3889.0,0.26,-2.28,10.05
3901.0,1.19,-1.96,10.58
3914.0,2.22,-1.48,10.73
3927.0,2.77,-1.1,10.45
3940.0,2.57,-0.96,10.18
3953.0,2.29,-1.24,10.01
3966.0,1.94,-1.48,10.07
3979.0,1.64,-1.65,10.17
3991.0,1.52,-1.71,10.35
4004.0,1.64,-1.68,10.65
4017.0,2.01,-1.69,10.82
4030.0,2.59,-1.68,10.95
4043.0,3.03,-1.43,10.66
4056.0,3.02,-1.11,10.24
4069.0,2.53,-0.85,9.83
4081.0,2.04,-0.62,9.42
4094.0,1.74,-0.48,9.35
4107.0,1.68,-0.45,9.45
4120.0,1.67,-0.48,9.43
4133.0,1.92,-0.71,9.52
4146.0,2.16,-1.0,9.93
4159.0,2.03,-1.13,9.96
4171.0,1.69,-1.2,9.86
4184.0,1.39,-1.21,9.56
4197.0,1.2,-1.3,9.39
4210.0,1.17,-1.55,8.94
4223.0,0.85,-1.64,8.49
4236.0,0.45,-1.39,8.17
4249.0,0.44,-1.56,8.97
4261.0,0.61,-1.98,10.25
4274.0,0.92,-2.63,11.48
4287.0,1.53,-3.36,12.34
4300.0,2.08,-3.76,13.0
4313.0,2.11,-3.67,12.82
4326.0,1.6,-3.38,12.1
4339.0,0.62,-3.0,10.95
4351.0,-0.18,-2.56,9.77
4364.0,-0.57,-2.16,9.13
4377.0,-0.26,-1.81,9.04
4390.0,0.2,-1.49,9.06
4403.0,0.72,-1.16,9.14
4416.0,1.05,-0.97,9.21
4429.0,0.75,-1.05,9.41
4441.0,-0.14,-1.45,9.44
4454.0,-1.35,-1.86,9.36
4467.0,-2.29,-2.11,9.19
4480.0,-2.89,-2.1,9.0
4493.0,-3.17,-1.92,8.97
4506.0,-3.11,-1.77,9.32
4519.0,-2.9,-1.74,9.75
4532.0,-2.86,-1.64,9.9
4544.0,-3.09,-1.41,9.55
4557.0,-3.41,-1.19,9.16
4570.0,-3.62,-1.17,9.15
4583.0,-3.65,-1.37,9.73
4596.0,-3.54,-1.71,10.54
4609.0,-3.48,-1.92,10.86
4622.0,-3.34,-1.71,10.61
4635.0,-3.05,-1.19,9.84
4647.0,-2.86,-0.67,9.2
4660.0,-2.97,-0.44,9.13
4673.0,-3.42,-0.63,9.53
4686.0,-3.86,-0.98,9.75
4699.0,-4.34,-1.25,9.69
4712.0,-4.6,-1.19,9.23
4725.0,-4.43,-0.96,8.83
4738.0,-3.82,-0.56,8.75
4750.0,-3.08,-0.17,8.89
4763.0,-2.63,0.07,9.0
4776.0,-2.72,0.08,9.14
4789.0,-3.09,-0.12,9.18
4802.0,-3.78,-0.45,9.01
4815.0,-4.36,-0.81,9.01
4828.0,-4.73,-1.12,9.14
4841.0,-4.98,-1.34,9.3
4853.0,-5.02,-1.5,9.49
4866.0,-4.81,-1.51,9.48
4879.0,-4.47,-1.32,9.42
4892.0,-3.94,-1.06,9.53
4905.0,-3.56,-0.89,9.54
4918.0,-3.34,-0.88,9.67
4931.0,-3.2,-0.89,9.57
4944.0,-3.0,-0.75,9.24
4956.0,-3.1,-0.53,8.73
4969.0,-3.26,-0.64,8.89
4982.0,-3.15,-1.09,9.94
4995.0,-2.8,-1.49,10.83
5008.0,-2.3,-1.63,11.12
5021.0,-1.86,-1.53,10.95
5034.0,-1.85,-1.24,10.35
5047.0,-1.94,-0.98,9.28
5059.0,-2.35,-0.72,8.67
5072.0,-2.75,-0.95,7.97
5085.0,-3.46,-1.33,8.1
5098.0,-3.85,-1.9,8.88
5111.0,-3.83,-2.43,9.81
5124.0,-3.86,-2.63,9.92
5137.0,-3.86,-2.68,9.73
5150.0,-3.42,-2.7,10.32
5162.0,-3.18,-2.74,11.01
5175.0,-2.76,-2.79,11.29
5188.0,-2.22,-2.79,11.2
5201.0,-1.41,-2.85,11.33
5214.0,-0.82,-2.94,11.73
5227.0,-0.88,-2.78,11.15
5240.0,-0.96,-2.6,10.72
5253.0,-1.3,-2.12,10.05
5265.0,-1.41,-1.65,9.39
5278.0,-0.86,-1.3,9.52
5291.0,0.42,-1.15,10.2
5304.0,1.71,-1.05,10.92
5317.0,2.38,-1.12,11.12
5330.0,2.36,-1.12,10.85
5343.0,1.8,-1.14,10.5
5355.0,1.39,-1.24,10.49
5368.0,1.46,-1.24,10.81
5381.0,1.9,-1.29,11.18
5394.0,2.51,-1.25,11.12
5407.0,2.9,-1.05,10.64
5420.0,3.04,-0.74,10.03
5433.0,2.94,-0.37,9.51
5445.0,2.67,-0.26,9.23
5458.0,2.31,-0.41,9.15
5471.0,1.83,-0.81,9.37
5484.0,1.28,-1.38,9.67
5497.0,0.94,-1.85,9.71
5510.0,1.0,-2.03,9.41
5523.0,1.37,-1.93,9.31
5535.0,1.8,-1.62,9.33
5548.0,2.07,-1.31,9.43
5561.0,2.17,-0.94,9.49
5574.0,2.28,-0.55,9.41
5587.0,2.33,-0.15,9.23
5600.0,2.23,0.15,8.91
5613.0,2.04,0.15,8.76
5625.0,2.21,-0.12,9.07
5638.0,2.63,-0.5,9.91
5651.0,3.0,-1.04,10.85
5664.0,2.91,-1.68,11.63
5677.0,2.41,-2.11,11.48
5690.0,1.74,-2.28,11.0
5703.0,1.37,-2.07,10.34
5715.0,1.42,-1.6,9.52
5728.0,1.57,-1.13,8.95
5741.0,1.86,-0.94,8.76
5754.0,2.05,-1.1,8.81
5767.0,2.22,-1.43,9.14
5780.0,2.23,-1.8,9.84
5793.0,1.92,-2.18,10.4
5805.0,1.45,-2.52,10.66
5818.0,1.0,-2.58,10.52
5831.0,0.86,-2.43,10.03
5844.0,0.94,-2.16,9.78
5857.0,1.36,-1.85,9.77
5870.0,1.57,-1.63,9.9
5883.0,1.35,-1.7,10.26
5895.0,0.74,-2.14,10.71
5908.0,0.21,-2.7,11.25
5921.0,-0.2,-2.93,11.26
5934.0,-0.67,-2.91,10.97
5947.0,-1.1,-2.97,10.94
5960.0,-1.29,-2.88,10.66
5973.0,-1.39,-2.41,10.14
5986.0,-1.29,-1.7,9.42
5998.0,-1.21,-1.25,9.32
6011.0,-1.16,-1.0,9.5
6024.0,-1.31,-0.94,9.7
6037.0,-1.84,-1.14,9.91
6050.0,-2.51,-1.48,9.87
6063.0,-3.32,-1.57,9.55
6076.0,-3.91,-1.49,9.0
6089.0,-3.98,-1.27,8.9
6101.0,-3.64,-1.11,9.37
6114.0,-3.2,-0.94,9.96
6127.0,-2.96,-0.93,10.52
6140.0,-3.22,-1.08,10.69
6153.0,-3.8,-1.16,10.22
6166.0,-4.29,-1.21,9.85
6179.0,-4.58,-1.34,9.93
6192.0,-4.88,-1.49,9.89
6204.0,-5.15,-1.56,9.75
6217.0,-5.36,-1.51,9.51
6230.0,-5.58,-1.53,9.39
6243.0,-5.79,-1.66,9.59
6256.0,-6.06,-1.94,9.76
6269.0,-6.27,-2.21,9.94
6282.0,-6.31,-2.52,10.19
6295.0,-6.15,-2.56,10.15
6307.0,-5.72,-2.34,9.87
6320.0,-5.06,-2.06,9.66
6333.0,-4.51,-1.8,9.3
6346.0,-3.95,-1.54,9.1
6359.0,-3.47,-1.47,9.3
6372.0,-2.94,-1.51,9.86
6385.0,-2.74,-1.43,9.61
6398.0,-3.0,-1.3,8.72
6410.0,-3.19,-1.42,8.41
6423.0,-2.89,-1.64,8.72
6436.0,-2.37,-1.67,9.08
6449.0,-1.65,-1.63,9.78
6462.0,-1.24,-1.35,9.65
6475.0,-1.26,-1.08,8.99
6488.0,-1.55,-1.02,8.24
6501.0,-1.83,-1.18,8.01
6513.0,-1.86,-1.69,8.51
6526.0,-1.64,-2.28,9.65
6539.0,-1.27,-2.9,10.9
6552.0,-0.92,-3.11,11.34
6565.0,-0.63,-2.81,10.86
6578.0,-0.88,-2.25,9.91
6591.0,-1.47,-1.9,8.75
6604.0,-2.03,-1.93,8.04
6616.0,-2.03,-2.15,8.22
6629.0,-1.52,-2.34,8.95
6642.0,-0.62,-2.55,9.99
6655.0,0.29,-2.78,11.11
6668.0,1.1,-3.15,12.11
6681.0,1.57,-3.21,12.45
6694.0,1.98,-3.16,12.9
6706.0,2.15,-2.81,12.76
6719.0,2.27,-2.14,11.81
6732.0,2.33,-1.46,10.36
6745.0,2.39,-0.72,8.87
6758.0,2.44,-0.48,8.33
6771.0,2.8,-1.22,9.24
6784.0,2.81,-2.04,10.86
6796.0,2.43,-2.75,12.16
6809.0,2.16,-2.84,12.49
6822.0,2.11,-2.43,11.6
6835.0,1.98,-1.78,10.26
6848.0,2.08,-1.36,9.1
6861.0,2.46,-1.08,8.42
6874.0,2.83,-1.13,8.8
6886.0,3.0,-1.65,9.95
6899.0,2.99,-2.18,10.74
6912.0,2.86,-2.55,11.09
6925.0,2.52,-2.57,10.77
6938.0,2.21,-2.29,9.84
6951.0,2.2,-1.84,8.87
6964.0,2.55,-1.5,8.52
6976.0,2.86,-1.37,8.62
6989.0,3.1,-1.45,9.06
7002.0,3.11,-1.68,9.75
7015.0,2.9,-1.86,10.22
7028.0,2.88,-1.84,10.1
7041.0,2.9,-1.63,9.79
7054.0,2.88,-1.41,9.57
7066.0,3.2,-1.35,9.51
7079.0,3.43,-1.49,9.74
7092.0,3.33,-1.78,9.95
7105.0,2.82,-2.33,10.28
7118.0,2.13,-3.1,10.8
7131.0,1.57,-3.66,11.2
7144.0,1.18,-3.9,11.17
7156.0,1.0,-3.74,11.03
7169.0,1.22,-3.39,10.7
7182.0,1.42,-2.95,10.15
7195.0,1.54,-2.53,9.93
7208.0,1.74,-2.14,9.64
7221.0,1.88,-1.99,9.63
7234.0,1.63,-1.99,9.92
7247.0,0.82,-2.23,9.84
7259.0,0.25,-2.47,9.46
7272.0,0.03,-2.6,9.26
7285.0,0.03,-2.54,8.81
7298.0,0.14,-2.38,8.18
7311.0,0.76,-2.11,7.83
7324.0,1.74,-1.7,9.17
7337.0,2.63,-1.55,10.77
7349.0,2.28,-1.53,11.17
7362.0,0.81,-1.55,10.12
7375.0,-1.21,-1.91,9.08
7388.0,-2.8,-2.47,8.56
7401.0,-3.51,-3.16,9.78
7414.0,-3.45,-3.32,11.02
7427.0,-2.97,-3.08,11.54
7439.0,-2.46,-2.73,11.63
7452.0,-1.98,-2.39,11.55
7465.0,-1.77,-2.06,11.31
7478.0,-1.81,-1.85,10.95
7491.0,-2.24,-1.72,10.26
7504.0,-2.84,-1.68,9.72
7517.0,-3.18,-1.74,9.64
7530.0,-3.15,-1.69,9.82
7542.0,-2.87,-1.64,10.08
7555.0,-2.7,-1.51,10.02
7568.0,-2.66,-1.34,9.73
7581.0,-2.59,-1.17,9.36
7594.0,-2.62,-1.06,9.19
7607.0,-2.67,-1.04,9.29
7620.0,-2.9,-1.21,9.56
7633.0,-3.34,-1.54,9.85
7645.0,-3.79,-1.92,10.13
7658.0,-4.28,-2.22,10.28
7671.0,-4.62,-2.4,10.15
7684.0,-4.64,-2.3,9.81
7697.0,-4.44,-2.19,9.77
7710.0,-4.23,-2.19,9.96
7723.0,-4.01,-2.24,10.26
7736.0,-3.96,-2.18,10.19
7748.0,-4.07,-2.07,9.77
7761.0,-4.2,-2.14,9.46
7774.0,-4.02,-2.24,9.37
7787.0,-3.39,-2.18,9.33
7800.0,-2.41,-1.9,9.39
7813.0,-1.27,-1.52,9.58
7826.0,-0.37,-1.09,9.65
7839.0,0.23,-0.71,9.67
7851.0,0.56,-0.64,9.84
7864.0,0.68,-0.85,10.12
7877.0,0.32,-1.17,9.94
7890.0,-0.39,-1.58,9.46
7903.0,-0.77,-1.98,9.43
7916.0,-0.65,-2.18,9.87
7929.0,-0.32,-2.09,10.17
7941.0,-0.18,-1.93,9.87
7954.0,-0.23,-1.7,9.37
7967.0,-0.61,-1.61,8.86
7980.0,-1.26,-1.72,8.48
7993.0,-1.68,-2.03,8.55
8006.0,-1.58,-2.12,9.03
8019.0,-0.98,-1.93,9.6
8032.0,-0.31,-1.82,10.14
8044.0,0.33,-1.97,10.77
8057.0,0.48,-2.27,11.17
8070.0,0.07,-2.67,11.23
8083.0,-0.82,-3.12,11.03
8096.0,-1.61,-3.45,10.86
8109.0,-1.66,-3.5,10.85
8122.0,-0.83,-3.28,10.86
8135.0,0.25,-2.79,10.78
8147.0,1.28,-2.37,10.65
8160.0,1.58,-2.18,10.56
8173.0,1.2,-2.24,10.22
8186.0,0.65,-2.32,9.49
8199.0,-0.02,-2.35,8.91
8212.0,0.05,-2.29,8.61
8225.0,0.82,-2.26,9.16
8237.0,1.89,-2.22,9.85
8250.0,2.73,-2.12,10.48
8263.0,3.65,-1.92,10.85
8276.0,4.42,-1.73,11.06
8289.0,4.9,-1.56,10.96
8302.0,4.67,-1.54,10.56
8315.0,3.89,-1.8,10.43
8327.0,2.93,-2.32,10.45
8340.0,2.37,-2.72,10.56
8353.0,2.47,-2.8,10.67
8366.0,3.04,-2.45,10.74
8379.0,3.61,-1.95,10.5
8392.0,3.98,-1.54,10.03
8405.0,4.15,-1.28,9.58
8417.0,4.03,-1.11,9.32
8430.0,3.75,-0.99,9.04
8443.0,3.4,-0.87,8.71
8456.0,3.1,-0.66,8.27
8469.0,3.09,-0.47,8.18
8482.0,3.33,-0.39,8.54
8495.0,3.53,-0.4,8.77
8507.0,3.54,-0.51,8.89
8520.0,3.43,-0.8,9.06
8533.0,3.2,-1.19,9.31
8546.0,2.87,-1.54,9.31
8559.0,2.72,-1.77,9.56
8572.0,2.81,-1.89,9.72
8585.0,3.06,-1.9,9.81
8597.0,2.89,-1.9,9.88
8610.0,2.27,-1.85,9.59
8623.0,1.6,-1.78,9.1
8636.0,1.52,-1.64,8.94
8649.0,2.23,-1.56,9.4
8662.0,2.85,-1.58,9.98
8675.0,3.0,-1.74,10.38
8687.0,3.0,-1.97,10.42
8700.0,2.7,-2.19,10.44
8713.0,2.11,-2.51,10.61
8726.0,1.51,-3.01,11.02
8739.0,0.88,-3.47,11.3
8752.0,0.31,-3.56,10.85
8765.0,0.44,-3.32,10.47
8777.0,0.78,-3.13,10.71
8790.0,0.85,-3.12,11.04
8803.0,0.56,-3.2,11.07
8816.0,0.02,-3.16,10.72
8829.0,-0.55,-2.98,10.26
8842.0,-0.93,-2.64,9.86
8855.0,-1.04,-2.33,9.6
8868.0,-1.05,-2.06,9.54
8880.0,-1.07,-1.91,9.55
8893.0,-1.29,-1.81,9.57
8906.0,-1.58,-1.8,9.79
8919.0,-1.61,-1.79,9.94
8932.0,-1.59,-1.76,10.34
8945.0,-1.76,-1.72,10.3
8958.0,-2.13,-1.66,9.95
8971.0,-2.68,-1.86,9.84
8983.0,-3.06,-2.07,9.95
8996.0,-3.42,-2.1,9.98
9009.0,-3.62,-2.0,9.85
9022.0,-3.68,-1.74,9.51
9035.0,-3.67,-1.45,9.38
9048.0,-3.57,-1.32,9.57
9061.0,-3.52,-1.39,9.82
9074.0,-3.72,-1.48,9.97
9086.0,-4.07,-1.51,9.83
9099.0,-4.52,-1.59,9.6
9112.0,-4.76,-1.69,9.62
9125.0,-4.64,-1.76,9.86
9138.0,-4.37,-1.67,10.02
9151.0,-3.99,-1.5,10.05
9164.0,-3.64,-1.21,9.78
9177.0,-3.45,-1.01,9.68
9189.0,-3.55,-0.96,9.55
9202.0,-3.79,-1.09,9.37
9215.0,-4.25,-1.36,9.3
9228.0,-4.56,-1.6,9.11
9241.0,-4.67,-1.7,8.95
9254.0,-4.55,-1.72,8.9
9267.0,-4.04,-1.67,9.11
9280.0,-3.31,-1.5,9.44
9292.0,-2.73,-1.37,9.67
9305.0,-2.39,-1.3,9.83
9318.0,-2.32,-1.34,9.91
9331.0,-2.51,-1.38,9.72
9344.0,-2.88,-1.42,9.26
9357.0,-3.27,-1.42,8.65
9370.0,-3.35,-1.51,8.39
9383.0,-3.17,-1.68,8.68
9395.0,-2.76,-1.95,9.45
9408.0,-2.19,-2.27,10.43
9421.0,-1.71,-2.43,11.04
9434.0,-1.39,-2.42,11.45
9447.0,-1.24,-2.28,11.48
9460.0,-1.21,-2.2,11.44
9473.0,-1.46,-2.27,11.14
9486.0,-1.92,-2.39,10.54
9498.0,-2.14,-2.5,10.17
9511.0,-2.24,-2.52,9.81
9524.0,-1.85,-2.46,10.1
9537.0,-1.02,-2.18,10.57
9550.0,0.11,-1.51,10.6
9563.0,1.27,-0.63,10.13
9576.0,1.73,0.19,9.35
9588.0,1.56,0.49,8.76
9601.0,1.02,0.13,8.43
9614.0,0.36,-0.52,8.52
9627.0,0.05,-0.99,8.91
9640.0,0.06,-1.2,8.89
9653.0,0.35,-1.38,8.89
9666.0,1.11,-1.5,9.04
9678.0,1.85,-1.53,9.54
9691.0,2.57,-1.57,10.23
9704.0,2.99,-1.76,10.85
9717.0,3.1,-2.2,11.53
9730.0,3.11,-2.61,11.88
9743.0,3.15,-2.72,11.58
9756.0,3.23,-2.56,10.92
9768.0,3.53,-2.36,10.8
9781.0,3.94,-2.25,11.09
9794.0,4.59,-2.14,11.51
9807.0,5.04,-1.72,11.58
9820.0,5.29,-1.23,10.92
9833.0,5.09,-0.9,9.92
9846.0,4.46,-0.85,9.27
9858.0,3.91,-1.2,9.33
9871.0,3.27,-1.82,10.21
9884.0,2.93,-2.28,10.94
9897.0,2.88,-2.3,11.02
9910.0,2.84,-2.1,10.57
9923.0,2.7,-1.77,9.86
9936.0,2.62,-1.45,9.08
9948.0,2.63,-1.4,8.84
9961.0,2.55,-1.46,8.97
9974.0,2.4,-1.44,9.23
9987.0,2.45,-1.38,9.56
10000.0,2.53,-1.37,9.82
10013.0,2.66,-1.35,10.03
10026.0,2.62,-1.24,9.98
10038.0,2.51,-1.11,9.64
10051.0,2.49,-1.03,9.24
10064.0,2.41,-1.13,9.17
10077.0,2.18,-1.44,9.46
10090.0,2.02,-1.78,10.05
10103.0,2.18,-1.9,10.25
10116.0,2.38,-1.71,9.91
10128.0,2.46,-1.41,9.34
10141.0,2.52,-1.16,9.2
10154.0,2.47,-1.08,9.41
10167.0,2.26,-1.18,9.56
10180.0,1.94,-1.43,9.66
10193.0,1.67,-1.62,9.76
10206.0,1.58,-1.6,9.77
10218.0,1.41,-1.61,9.76
10231.0,1.14,-1.84,9.99
10244.0,0.85,-2.11,10.22
10257.0,0.55,-2.4,10.44
10270.0,0.16,-2.47,10.24
10283.0,-0.36,-2.49,10.05
10296.0,-0.8,-2.52,10.15
10309.0,-1.09,-2.7,10.49
10321.0,-1.18,-2.81,10.89
10334.0,-1.34,-2.73,11.01
10347.0,-1.68,-2.45,10.71
10360.0,-1.96,-1.98,10.14
10373.0,-2.17,-1.51,9.54
10386.0,-2.47,-1.21,9.0
10399.0,-2.7,-1.15,8.65
10412.0,-2.86,-1.18,8.74
10424.0,-3.18,-1.18,8.83
10437.0,-3.22,-1.2,8.9
10450.0,-3.16,-1.15,9.13
10463.0,-3.07,-1.08,9.56
10476.0,-3.1,-1.18,10.34
10489.0,-3.44,-1.36,10.62
10502.0,-4.18,-1.39,9.99
10515.0,-4.71,-1.29,9.34
10527.0,-4.54,-1.27,9.57
10540.0,-4.19,-1.3,10.01
10553.0,-3.79,-1.17,9.99
10566.0,-3.47,-0.67,9.5
10579.0,-3.04,-0.35,9.42
10592.0,-2.53,-0.43,10.31
10605.0,-2.34,-0.6,10.9
10618.0,-2.67,-0.7,10.78
10630.0,-3.38,-0.8,10.23
10643.0,-4.1,-0.88,9.63
10656.0,-4.74,-0.94,9.19
10669.0,-5.0,-1.09,9.29
10682.0,-4.84,-1.25,9.85
10695.0,-4.66,-1.31,10.16
10708.0,-4.49,-1.16,9.95
10721.0,-4.41,-0.99,9.53
10733.0,-4.34,-0.85,9.16
10746.0,-4.39,-0.79,9.03
10759.0,-4.44,-0.87,8.98
10772.0,-4.38,-0.98,9.04
10785.0,-4.1,-1.02,9.15
10798.0,-3.71,-1.08,9.5
10811.0,-3.15,-1.13,9.97
10824.0,-2.63,-1.18,10.47
10836.0,-2.12,-1.11,10.74
10849.0,-1.58,-1.05,10.9
10862.0,-1.29,-1.18,11.17
10875.0,-1.09,-1.28,11.2
10888.0,-1.07,-1.1,11.09
10901.0,-1.05,-0.82,9.59
10914.0,-1.4,-0.53,8.34
10927.0,-1.61,-0.34,7.76
10939.0,-1.53,-0.32,7.43
10952.0,-1.37,-0.48,7.55
10965.0,-1.02,-0.69,7.91
10978.0,-0.76,-0.99,8.53
10991.0,-0.33,-1.38,9.27
11004.0,-0.01,-2.15,10.08
11017.0,-0.78,-2.77,10.47
11030.0,-1.76,-3.17,9.94
11042.0,-2.28,-3.54,9.64
11055.0,-1.86,-3.32,9.27
11068.0,-0.74,-2.63,8.95
11081.0,0.61,-1.8,9.09
11094.0,1.85,-1.64,10.1
11107.0,2.37,-1.88,10.87
11120.0,1.99,-2.44,11.38
11132.0,0.81,-3.02,11.49
11145.0,-0.15,-3.33,11.13
11158.0,-0.84,-3.33,10.71
11171.0,-0.65,-3.22,10.63
11184.0,0.57,-3.14,11.09
11197.0,2.26,-2.89,11.44
11210.0,3.79,-2.45,11.32
11223.0,4.72,-1.85,11.25
11235.0,4.78,-1.13,10.4
11248.0,4.03,-0.94,9.51
11261.0,3.14,-1.33,9.37
11274.0,2.37,-2.03,9.83
11287.0,1.88,-2.87,10.48
11300.0,1.82,-3.3,11.0
11313.0,1.98,-3.25,11.16
11325.0,2.39,-2.89,11.02
11338.0,2.74,-2.4,10.63
11351.0,2.98,-1.85,9.96
11364.0,3.13,-1.53,9.48
11377.0,3.06,-1.53,9.47
11390.0,2.84,-1.98,10.01
11403.0,2.57,-2.44,10.43
11415.0,2.36,-2.72,10.47
11428.0,2.28,-2.56,10.15
11441.0,2.35,-2.18,9.76
11454.0,2.6,-1.75,9.09
11467.0,2.96,-1.37,9.17
11480.0,3.42,-1.14,9.48
11493.0,3.76,-1.16,10.13
11505.0,3.89,-1.31,10.63
11518.0,3.76,-1.34,10.38
11531.0,3.47,-1.22,9.68
11544.0,3.03,-1.07,9.16
11557.0,2.76,-1.24,9.26
11570.0,2.66,-1.39,9.79
11583.0,2.55,-1.36,10.12
11595.0,2.66,-1.36,10.34
11608.0,2.55,-1.21,10.07
11621.0,2.28,-1.16,9.65
11634.0,1.82,-1.32,9.45
11647.0,1.58,-1.72,9.85
11660.0,1.51,-2.21,10.6
11673.0,1.33,-2.55,11.06
11685.0,1.2,-2.88,11.41
11698.0,1.57,-2.85,11.45
11711.0,1.91,-2.27,11.08
11724.0,1.62,-1.59,10.53
11737.0,1.53,-1.23,8.57
11750.0,0.62,-1.21,7.34
11763.0,-0.05,-1.36,7.04
11775.0,-0.49,-1.53,7.16
11788.0,-0.37,-1.76,7.86
11801.0,-0.33,-2.08,8.93
11814.0,-0.64,-2.38,10.0
11827.0,-0.69,-3.15,10.85
11840.0,-0.92,-3.91,11.46
11853.0,-1.8,-3.72,10.43
11866.0,-2.67,-3.36,9.33
11878.0,-3.47,-3.32,8.91
11891.0,-4.1,-3.57,9.34
11904.0,-4.7,-4.01,10.26
11917.0,-5.07,-4.34,10.98
11930.0,-5.23,-4.22,11.02
11943.0,-4.98,-3.59,10.46
11956.0,-4.25,-2.76,9.77
11969.0,-3.52,-1.91,9.38
11981.0,-2.95,-1.54,9.61
11994.0,-2.68,-1.43,10.1
12007.0,-2.95,-1.56,10.41
12020.0,-3.71,-1.76,10.18
12033.0,-4.53,-1.79,9.52
12046.0,-4.96,-1.6,8.64
12059.0,-4.88,-1.27,8.11
12072.0,-4.3,-0.96,8.31
12084.0,-3.55,-0.8,9.02
12097.0,-3.05,-0.72,9.64
12110.0,-2.97,-0.78,9.83
12123.0,-3.24,-0.86,9.54
12136.0,-3.64,-0.92,9.0
12149.0,-3.89,-0.99,8.5
12162.0,-3.85,-1.05,8.59
12175.0,-3.65,-1.04,8.86
12187.0,-3.47,-1.03,8.92
12200.0,-3.36,-0.95,8.72
12213.0,-3.13,-0.87,8.73
12226.0,-2.79,-1.07,9.45
12239.0,-2.48,-1.46,10.68
12252.0,-2.55,-1.81,11.36
12265.0,-2.95,-1.93,10.98
12278.0,-3.64,-1.96,9.99
12290.0,-4.12,-2.06,9.46
12303.0,-4.26,-2.24,9.69
12316.0,-4.1,-2.44,10.39
12329.0,-3.47,-2.45,11.1
12342.0,-2.77,-2.25,11.6
12355.0,-2.4,-1.91,11.04
12368.0,-2.04,-1.46,10.3
12381.0,-1.64,-1.04,10.05
12393.0,-1.5,-0.82,9.98
12406.0,-1.81,-0.75,9.42
12419.0,-2.49,-0.89,8.91
12432.0,-3.06,-1.32,8.99
12445.0,-3.41,-1.7,9.12
12458.0,-3.25,-1.98,9.43
12471.0,-2.82,-2.15,9.64
12484.0,-2.25,-2.02,9.34
12496.0,-1.5,-1.73,9.01
12509.0,-0.86,-1.57,8.97
12522.0,-0.58,-1.67,9.54
12535.0,-0.94,-2.23,9.99
12548.0,-1.6,-2.72,10.13
12561.0,-2.39,-3.29,10.02
12574.0,-2.14,-3.42,10.21
12587.0,-0.86,-3.16,10.12
12599.0,0.74,-2.25,9.61
12612.0,2.06,-1.23,8.76
12625.0,2.39,-0.73,8.65
12638.0,1.83,-1.24,9.18
12651.0,0.77,-2.37,10.34
12664.0,0.04,-3.3,11.08
12677.0,0.08,-3.83,11.62
12689.0,1.17,-3.72,12.03
12702.0,2.98,-3.11,11.9
12715.0,4.61,-2.41,11.74
12728.0,5.39,-2.12,11.78
12741.0,4.95,-2.32,11.98
12754.0,3.87,-3.03,12.35
12767.0,2.65,-3.86,12.78
12779.0,1.91,-4.35,12.77
12792.0,1.89,-4.12,12.27
12805.0,2.33,-3.31,11.21
12818.0,2.87,-2.14,10.29
12831.0,4.12,-1.29,8.69
12844.0,3.94,-0.58,7.89
12857.0,3.63,-0.52,7.64
